Scenario,Time,P0,P1,P2,P3,P4,P5,P6,P7,P8,P9,P10,P11,P12,P13,P14,P15,P16,P17,P18,P19,P20,P21,P22,P23,P24,P25,P26,P27,P28,P29,P30,P31,ECG,AX,AY,AZ,QW,QX,QY,QZ,CS,CA,CG,CM
paper,18:06:00.019,29179,7259,3080,1744,1045,1428,764,1625,1656,927,949,2236,3603,29188,29184,29175,29219,29206,1415,1331,2759,1388,2148,2724,1085,1133,936,905,1542,1705,29214,29166,2147483647,64715,87,523,13296,63448,7631,5392,0,3,3,2
paper,18:06:00.119,29078,7220,3084,1757,1072,1415,808,1665,1678,914,944,2232,3691,29175,29254,29210,29223,29179,1415,1318,2772,1384,2113,2711,1063,1155,927,909,1546,1700,29214,29166,2147483647,64728,80,519,13297,63444,7627,5392,0,3,3,2
paper,18:06:00.142,29153,7242,3111,1744,1054,1463,830,1625,1683,834,988,2245,3656,29166,29126,29162,29179,29153,1476,1313,2843,1406,2188,2737,1089,1146,975,918,1590,1669,29170,29140,2147483647,64725,96,520,13301,63437,7614,5397,0,3,3,2
paper,18:06:00.319,29122,7237,3093,1718,1050,1432,878,1630,1652,896,914,2276,3665,29188,29201,29166,29188,29096,1423,1340,2821,1388,2184,2799,1076,1182,918,905,1546,1731,29219,29131,2147483647,64712,89,519,13295,63416,7610,5410,0,3,3,2
paper,18:06:00.345,29175,7229,3102,1705,1045,1450,791,1608,1678,896,914,2258,3607,29140,29118,29157,29192,29184,1445,1340,2816,1445,2131,2808,1081,1138,936,909,1529,1700,29144,29118,2147483647,64706,81,516,13288,63409,7617,5414,0,3,3,2
paper,18:06:00.519,29170,7229,3098,1740,1072,1454,782,1621,1643,874,971,2276,3643,29135,29179,29179,29188,29157,1476,1296,2786,1406,2074,2786,1107,1125,958,905,1555,1731,29144,29131,2147483647,64719,84,525,13290,63414,7620,5408,0,3,3,2
paper,18:06:00.544,29179,7229,3089,1731,1054,1445,865,1634,1647,892,936,2258,3660,29100,29166,29197,29179,29140,1458,1327,2786,1410,2122,2759,1050,1103,949,905,1560,1687,29166,29166,2147483647,64717,86,520,13297,63407,7611,5400,0,3,3,2
paper,18:06:00.644,29118,7189,3106,1740,1045,1441,821,1652,1674,892,914,2241,3643,29157,29153,29228,29184,29206,1467,1335,2808,1397,2126,2742,1094,1155,971,905,1538,1696,29083,29122,2147483647,64718,84,521,13299,63405,7606,5402,0,3,3,2
paper,18:06:00.742,29140,7224,3084,1713,1028,1450,821,1634,1665,874,966,2293,3643,29148,29170,29236,29219,29175,1445,1331,2812,1401,2140,2742,1094,1133,940,914,1542,1709,29166,29219,2147483647,64717,78,524,13299,63406,7606,5402,0,3,3,2
paper,18:06:00.840,29219,7215,3045,1762,1067,1445,812,1656,1634,914,949,2263,3634,29175,29091,29201,29232,29069,1441,1296,2808,1419,2104,2724,1111,1129,949,914,1568,1713,29122,29179,2147483647,64718,79,516,13302,63404,7603,5399,0,3,3,2
paper,18:06:00.942,29201,7264,3120,1753,1063,1458,804,1604,1647,909,940,2267,3625,29131,29175,29214,29258,29148,1415,1327,2816,1419,2131,2803,1072,1160,971,927,1577,1713,29197,29188,2147483647,64723,89,530,13310,63411,7592,5396,0,3,3,2
paper,18:06:01.119,29140,7224,3111,1766,1054,1415,817,1656,1647,856,975,2271,3603,29122,28990,29206,29162,29047,1489,1278,2750,1393,2113,2777,1094,1094,936,909,1573,1718,29228,29144,2147483647,64718,78,524,13307,63407,7595,5398,0,3,3,2
paper,18:06:01.219,29175,7215,3115,1749,1072,1463,821,1661,1625,918,936,2293,3634,29192,29100,29197,29179,29214,1432,1331,2812,1441,2113,2772,1076,1138,944,892,1551,1687,29144,29135,2147483647,64720,81,521,13307,63407,7596,5398,0,3,3,2
paper,18:06:01.319,29109,7268,3084,1744,1054,1437,791,1647,1647,900,953,2267,3651,29140,29074,29135,29197,29065,1454,1300,2816,1415,2113,2750,1076,1133,944,896,1498,1691,29214,29109,2147483647,64719,87,531,13309,63411,7593,5397,0,3,3,2
paper,18:06:01.419,29162,7229,3120,1749,1028,1415,821,1612,1625,812,931,2219,3621,29179,29008,29245,29245,28981,1428,1274,2786,1423,2118,2772,1076,1129,949,887,1546,1700,29118,29144,2147483647,64718,83,525,13310,63415,7590,5402,0,3,3,2
paper,18:06:01.444,29135,7189,3093,1722,1054,1419,843,1617,1718,905,966,2271,3660,29166,29012,29122,29197,29113,1423,1313,2816,1428,2162,2746,1111,1146,958,900,1538,1709,29228,29162,2147483647,64713,82,520,13308,63417,7591,5406,0,3,3,2
paper,18:06:01.619,29179,7242,3089,1718,1085,1432,786,1608,1661,905,953,2250,3691,29170,29083,29184,29206,29087,1476,1327,2816,1415,2162,2746,1089,1111,966,905,1568,1696,29140,29179,2147483647,64724,87,522,13304,63413,7597,5406,0,3,3,2
paper,18:06:01.719,29144,7242,3106,1731,1067,1423,830,1661,1604,927,936,2263,3634,29153,28964,29188,29126,28964,1472,1291,2772,1388,2083,2755,1098,1133,949,892,1551,1713,29126,29140,2147483647,64714,78,526,13306,63401,7593,5402,0,3,3,2
paper,18:06:01.745,29214,7264,3058,1718,1032,1441,812,1643,1634,914,927,2267,3656,29135,29135,29188,29201,29122,1463,1313,2759,1419,2131,2733,1098,1111,936,931,1542,1705,29223,29166,2147483647,64717,80,522,13301,63399,7599,5405,0,3,3,2
paper,18:06:01.919,29126,7246,3124,1735,1098,1445,808,1639,1643,887,914,2293,3669,29170,29030,29219,29192,29091,1450,1278,2790,1423,2104,2746,1081,1120,922,918,1573,1718,29206,29219,2147483647,64716,85,530,13297,63402,7610,5400,0,3,3,2
paper,18:06:02.019,29166,7242,3058,1727,1063,1437,830,1647,1630,878,971,2285,3660,29162,29043,29192,29201,29056,1458,1278,2808,1432,2109,2707,1111,1098,984,944,1538,1700,29219,29192,2147483647,64721,83,522,13293,63398,7619,5397,0,3,3,2
paper,18:06:02.119,29206,7185,3076,1722,1059,1441,812,1630,1647,909,940,2258,3660,29104,29153,29201,29170,29148,1454,1313,2812,1406,2113,2729,1098,1164,962,900,1511,1683,29170,29140,2147483647,64721,84,515,13290,63395,7623,5396,0,3,3,2
paper,18:06:02.220,29162,7215,3032,1722,1050,1445,830,1599,1669,918,940,2263,3638,29166,29118,29162,29197,29109,1454,1309,2794,1410,2157,2689,1063,1151,931,922,1555,1696,29197,29219,2147483647,64716,86,522,13286,63392,7626,5400,0,3,3,2
paper,18:06:02.243,29170,7255,3080,1718,1032,1432,812,1617,1652,896,931,2228,3599,29113,29078,29188,29118,28999,1454,1318,2755,1415,2140,2759,1072,1063,966,861,1560,1687,29087,29184,2147483647,64715,81,518,13284,63388,7627,5401,0,3,3,2
paper,18:06:02.419,29140,7193,3049,1797,1063,1445,782,1643,1669,900,958,2232,3669,29131,29091,29201,29192,29166,1445,1327,2750,1406,2078,2733,1063,1133,962,892,1577,1700,29113,29175,2147483647,64719,86,515,13283,63385,7628,5402,0,3,3,2
paper,18:06:02.445,29148,7237,3084,1731,1059,1441,808,1669,1665,887,975,2267,3625,29083,29131,29214,29219,29078,1450,1300,2768,1415,2113,2742,1089,1116,914,896,1560,1696,29126,29192,2147483647,64717,80,516,13280,63380,7632,5403,0,3,3,2
paper,18:06:02.619,29179,7163,3067,1718,1076,1428,812,1661,1678,914,927,2192,3638,29153,29113,29179,29179,29091,1445,1291,2746,1415,2126,2733,1081,1089,953,905,1546,1678,29069,29170,2147483647,64713,89,517,13274,63394,7642,5406,0,3,3,2
paper,18:06:02.719,29131,7224,3084,1744,1050,1410,799,1630,1661,918,953,2285,3638,29096,28986,29126,29157,29012,1423,1278,2755,1419,2131,2711,1103,1120,940,887,1551,1661,29113,29170,2147483647,64711,86,522,13272,63393,7648,5406,0,3,3,2
paper,18:06:02.939,29157,7242,3054,1722,1050,1428,791,1625,1647,856,936,2219,3616,29122,29083,29162,29175,29157,1432,1327,2794,1415,2153,2702,1111,1116,944,905,1551,1661,29179,29201,2147483647,64711,78,520,13278,63385,7633,5408,0,3,3,2
paper,18:06:03.145,29148,7193,3071,1713,1063,1397,804,1630,1634,892,927,2228,3603,29104,29087,29197,29166,29144,1428,1278,2799,1384,2109,2649,1103,1138,966,905,1568,1691,29162,29170,2147483647,64721,84,517,13279,63384,7632,5406,0,3,3,2
paper,18:06:03.244,29210,7233,3089,1744,1067,1415,786,1617,1669,905,922,2245,3607,29122,29100,29201,29166,29113,1441,1296,2759,1415,2135,2720,1120,1098,949,909,1608,1700,29144,29175,2147483647,64717,80,515,13280,63383,7629,5407,0,3,3,2
paper,18:06:03.343,29206,7290,3041,1766,1063,1441,777,1612,1656,909,918,2263,3621,29126,29113,29153,29170,29109,1472,1331,2799,1401,2091,2724,1072,1129,940,922,1551,1674,29083,29223,2147483647,64715,83,522,13281,63384,7627,5407,0,3,3,2
paper,18:06:03.442,29197,7246,3093,1744,1045,1428,795,1634,1674,878,922,2228,3651,29087,29126,29170,29162,29131,1454,1300,2768,1410,2109,2720,1045,1155,922,896,1551,1709,29135,29206,2147483647,64720,84,520,13281,63384,7627,5407,0,3,3,2
paper,18:06:03.553,29201,7286,3093,1792,1054,1428,791,1639,1604,927,927,2263,3616,29170,29157,29083,29144,29210,1454,1313,2755,1423,2113,2707,1081,1164,958,892,1538,1696,29025,29236,2147483647,64710,84,522,13283,63385,7625,5407,0,3,3,2
paper,18:06:03.651,29175,7211,3071,1722,1059,1441,808,1647,1634,936,927,2223,3625,29170,29206,29250,29166,29188,1432,1340,2790,1454,2118,2689,1076,1116,958,896,1582,1705,29047,29175,2147483647,64716,80,525,13287,63388,7618,5409,0,3,3,2
paper,18:06:03.820,29214,7229,3115,1709,1028,1450,760,1608,1665,892,927,2254,3651,29096,29126,29122,29184,29153,1472,1331,2746,1450,2126,2685,1120,1125,966,878,1555,1665,29144,29201,2147483647,64718,83,520,13289,63390,7614,5409,0,3,3,2
paper,18:06:03.919,29201,7237,3093,1727,1037,1415,804,1599,1586,909,958,2241,3616,29144,29157,29184,29166,29144,1463,1331,2733,1406,2148,2729,1111,1116,962,922,1529,1652,29214,29219,2147483647,64720,79,521,13291,63391,7610,5410,0,3,3,2
paper,18:06:04.019,29157,7250,3089,1713,1037,1415,843,1639,1652,905,953,2236,3660,29034,29131,29148,29131,29122,1476,1261,2742,1428,2096,2676,1072,1155,966,909,1533,1718,29175,29179,2147483647,64720,81,520,13292,63392,7609,5410,0,3,3,2
paper,18:06:04.119,29175,7264,3093,1700,1076,1423,812,1630,1621,878,958,2263,3634,29100,29219,29232,29113,29162,1419,1274,2768,1375,2153,2685,1054,1146,918,883,1533,1665,29228,29197,2147483647,64716,78,526,13293,63393,7607,5410,0,3,3,2
paper,18:06:04.219,29210,7250,3115,1727,1023,1458,808,1625,1604,900,953,2267,3590,29113,29144,29074,29096,29126,1445,1296,2715,1388,2083,2720,1125,1098,914,892,1564,1696,29131,29188,2147483647,64719,81,528,13294,63396,7606,5409,0,3,3,2
paper,18:06:04.244,29175,7255,3076,1770,1063,1423,821,1634,1634,896,922,2223,3651,29100,29188,29157,29083,29166,1441,1274,2790,1397,2087,2698,1063,1094,918,887,1568,1691,29148,29214,2147483647,64721,80,521,13296,63397,7605,5409,0,3,3,2
paper,18:06:04.419,29113,7233,3084,1718,1054,1419,786,1604,1604,892,971,2228,3651,29100,29122,28986,28999,29162,1463,1322,2755,1401,2113,2702,1063,1111,940,896,1551,1665,29166,29091,2147483647,64721,81,523,13295,63397,7606,5409,0,3,3,2
paper,18:06:04.530,29210,7233,3058,1700,1059,1415,843,1634,1678,892,953,2232,3643,29144,29153,29069,29065,29175,1467,1296,2794,1375,2188,2707,1103,1085,936,900,1573,1705,29153,29197,2147483647,64716,76,525,13295,63397,7606,5409,0,3,3,2
paper,18:06:04.556,29157,7193,3128,1705,1081,1415,830,1634,1617,936,953,2285,3625,29175,29236,29267,29184,29197,1454,1331,2764,1415,2148,2702,1076,1138,953,914,1564,1643,29074,29188,2147483647,64714,76,519,13294,63397,7606,5409,0,3,3,2
paper,18:06:04.719,29175,7277,3102,1744,1063,1423,808,1612,1599,861,931,2206,3643,29126,29144,29135,29069,29144,1498,1283,2764,1393,2104,2693,1085,1125,922,896,1560,1722,29236,29192,2147483647,64722,82,518,13293,63394,7608,5410,0,3,3,2
paper,18:06:04.819,29118,7242,3133,1722,1089,1437,786,1595,1630,892,979,2271,3647,29157,29140,29091,29061,29188,1476,1327,2742,1397,2126,2667,1107,1125,966,887,1538,1691,29192,29179,2147483647,64720,80,520,13291,63390,7608,5412,0,3,3,2
paper,18:06:04.920,29148,7281,3111,1727,1063,1428,804,1634,1643,861,918,2232,3625,29118,29126,28977,28981,29131,1445,1335,2724,1406,2118,2711,1085,1129,918,905,1573,1643,29192,29162,2147483647,64713,78,526,13290,63387,7608,5413,0,3,3,2
paper,18:06:05.019,29236,7229,3111,1731,1028,1450,773,1621,1652,883,940,2267,3625,29100,29113,28977,29144,29122,1476,1274,2737,1393,2135,2698,1116,1103,940,900,1555,1678,29100,29131,2147483647,64713,80,517,13287,63388,7610,5418,0,3,3,2
go to fist,18:06:05.119,29175,7272,3102,1749,993,1432,773,1617,1678,896,962,2214,3634,29153,29157,29043,29052,29148,1432,1309,2729,1410,2083,2667,1107,1089,936,900,1533,1718,29166,29153,2147483647,64720,82,526,13286,63382,7610,5419,0,3,3,2
go to fist,18:06:05.219,29210,7255,3062,1696,1032,1441,812,1612,1652,883,931,2245,3612,29131,29118,29113,29069,29135,1463,1313,2772,1410,2109,2707,1072,1107,953,887,1529,1687,29144,29206,2147483647,64721,76,521,13286,63379,7612,5415,0,3,3,2
go to fist,18:06:05.242,29170,7250,3102,1705,1006,1454,799,1643,1625,874,936,2302,3638,29140,29166,29030,29047,29148,1445,1278,2715,1401,2135,2685,1067,1094,971,900,1529,1705,29113,29162,2147483647,64713,76,522,13286,63377,7612,5416,0,3,3,2
go to fist,18:06:05.419,29201,7259,3067,1727,1076,1445,826,1612,1643,909,927,2219,3612,29140,29153,29017,29109,29118,1467,1322,2737,1410,2083,2698,1098,1116,931,909,1555,1691,29153,29162,2147483647,64719,76,519,13285,63373,7609,5418,0,3,3,2
go to fist,18:06:05.519,29170,7242,3137,1740,1059,1445,795,1661,1647,874,927,2232,3599,29162,29135,28968,29122,29140,1463,1287,2759,1388,2100,2641,1041,1155,927,918,1520,1700,29210,29148,2147483647,64722,79,522,13286,63374,7609,5418,0,3,3,2
go to fist,18:06:05.544,29162,7250,3084,1709,1063,1428,821,1643,1661,896,953,2276,3616,29100,29179,29091,29083,29140,1406,1270,2746,1428,2109,2707,1094,1094,909,887,1533,1727,29179,29157,2147483647,64723,76,517,13288,63375,7604,5419,0,3,3,2
go to fist,18:06:05.719,29157,7246,3155,1744,1059,1419,812,1665,1630,896,971,2245,3621,29157,29197,29069,29091,29258,1454,1287,2755,1393,2113,2676,1076,1146,927,892,1577,1696,29135,29192,2147483647,64718,81,526,13290,63379,7602,5418,0,3,3,2
go to fist,18:06:05.819,29122,7259,3093,1709,1063,1401,830,1630,1625,909,944,2241,3577,29162,29148,29021,29179,29091,1437,1291,2755,1393,2113,2676,1107,1133,949,896,1577,1665,29192,29162,2147483647,64712,73,523,13291,63379,7602,5418,0,3,3,2
go to fist,18:06:05.919,29175,7255,3115,1718,1076,1467,812,1625,1621,887,940,2258,3616,29126,29104,28999,28995,29153,1410,1278,2794,1397,2104,2676,1076,1120,900,856,1568,1691,29166,29118,2147483647,64719,74,522,13294,63378,7599,5414,0,3,3,2
go to fist,18:06:06.020,29135,7237,3089,1779,1045,1450,808,1617,1625,874,940,2258,3585,29148,29166,29034,29021,29122,1419,1353,2764,1401,2109,2663,1098,1125,971,922,1564,1753,29157,29104,2147483647,64715,76,517,13295,63378,7598,5413,0,3,3,2
go to fist,18:06:06.119,29192,7259,3124,1757,1089,1445,764,1599,1599,905,944,2232,3616,29166,29131,29140,29157,29157,1445,1309,2755,1419,2109,2698,1116,1146,949,896,1546,1722,29153,29140,2147483647,64718,72,527,13297,63378,7595,5413,0,3,3,2
go to fist,18:06:06.219,29148,7294,3120,1713,1037,1472,791,1647,1652,852,944,2250,3616,29157,29162,29144,29043,29179,1450,1318,2768,1388,2104,2707,1098,1129,971,909,1577,1683,29236,29197,2147483647,64717,72,523,13298,63379,7593,5413,0,3,3,2
go to fist,18:06:06.330,29201,7250,3172,1678,1041,1393,834,1647,1656,892,958,2214,3629,29148,29144,29166,29017,29109,1428,1291,2755,1375,2061,2698,1067,1138,940,900,1533,1678,29122,29219,2147483647,64717,76,524,13299,63379,7592,5413,0,3,3,2
go to fist,18:06:06.420,29087,7246,3128,1779,1067,1406,795,1612,1669,874,962,2184,3625,29078,29210,29135,29083,29245,1454,1278,2750,1379,2039,2693,1041,1120,936,909,1546,1665,29184,29157,2147483647,64724,73,524,13302,63378,7584,5412,0,3,3,2
go to fist,18:06:06.444,29153,7224,3093,1731,1072,1437,795,1630,1639,905,966,2223,3577,29131,29135,29144,29126,29192,1450,1353,2742,1379,2118,2680,1089,1116,936,874,1573,1687,29179,29131,2147483647,64721,75,531,13309,63371,7575,5408,0,3,3,2
go to fist,18:06:06.629,29157,7277,3146,1740,1094,1401,795,1621,1652,856,940,2258,3612,29157,29153,29126,29170,29175,1423,1309,2729,1379,2131,2729,1103,1155,993,878,1560,1727,29113,29157,2147483647,64716,73,521,13309,63362,7567,5415,0,3,3,2
go to fist,18:06:06.750,29087,7277,3071,1735,1037,1454,826,1634,1630,883,940,2245,3616,29135,29166,29210,29192,29184,1480,1327,2786,1397,2135,2702,1098,1111,975,896,1546,1683,29096,29083,2147483647,64720,66,525,13307,63349,7563,5419,0,3,3,2
go to fist,18:06:06.773,29214,7255,3067,1749,1045,1423,852,1652,1683,905,940,2271,3651,29184,29162,29122,29135,29100,1428,1309,2764,1428,2135,2715,1085,1125,927,905,1560,1731,29131,29210,2147483647,64719,63,526,13303,63336,7563,5424,0,3,3,2
go to fist,18:06:06.843,29206,7308,3080,1744,1085,1480,826,1621,1683,905,949,2263,3568,29109,29144,29100,29135,29091,1450,1296,2777,1450,2091,2680,1089,1116,979,892,1533,1669,29144,29228,2147483647,64720,67,526,13301,63326,7561,5429,0,3,3,2
go to fist,18:06:07.019,29184,7250,3115,1735,1001,1415,821,1617,1625,878,984,2267,3634,29166,29126,29122,29175,29100,1445,1300,2772,1415,2087,2649,1107,1142,931,892,1590,1757,29126,29192,2147483647,64722,65,528,13297,63312,7559,5436,0,3,3,2
go to fist,18:06:07.120,29157,7290,3146,1727,1037,1463,786,1630,1595,900,966,2201,3669,29214,29074,29135,29087,29087,1498,1340,2812,1410,2118,2671,1111,1125,962,896,1533,1713,29188,29232,2147483647,64717,65,528,13292,63301,7561,5440,0,3,3,2
go to fist,18:06:07.219,29192,7294,3106,1762,1050,1458,826,1625,1608,900,971,2293,3669,29140,29126,29201,29232,29144,1450,1291,2772,1432,2144,2698,1142,1160,949,900,1577,1722,29148,29188,2147483647,64716,55,528,13291,63293,7558,5444,0,3,3,2
go to fist,18:06:07.243,29188,7281,3080,1700,1067,1467,786,1643,1625,914,966,2254,3651,29056,29056,29131,29179,29109,1423,1248,2755,1419,2109,2676,1133,1138,953,852,1582,1705,29153,29175,2147483647,64717,64,529,13288,63291,7558,5450,0,3,3,2
go to fist,18:06:07.419,29074,7290,3124,1740,1063,1489,821,1621,1652,922,958,2280,3669,29206,29192,29223,29245,29184,1441,1335,2808,1406,2179,2658,1107,1103,927,905,1520,1740,29144,29091,2147483647,64715,60,516,13280,63272,7560,5457,0,3,3,2
go to fist,18:06:07.520,29135,7308,3133,1705,1067,1472,826,1647,1691,909,918,2254,3687,29109,29104,29148,29140,29096,1480,1296,2799,1432,2184,2667,1098,1129,914,931,1564,1722,29267,29166,2147483647,64711,59,521,13276,63264,7564,5459,0,3,3,2
go to fist,18:06:07.619,29236,7312,3089,1727,1028,1454,808,1652,1625,900,918,2271,3647,29135,29104,29153,29140,29122,1463,1309,2772,1393,2091,2667,1125,1111,918,878,1538,1713,29228,29201,2147483647,64722,57,527,13274,63264,7565,5462,0,3,3,2
go to fist,18:06:07.719,29153,7255,3133,1740,1072,1480,817,1599,1665,874,887,2258,3722,29144,29118,29157,29153,29122,1485,1318,2803,1371,2135,2641,1103,1125,979,887,1546,1718,29206,29126,2147483647,64709,57,520,13273,63260,7565,5464,0,3,3,2
go to fist,18:06:07.820,29188,7325,3186,1753,1072,1485,812,1630,1621,905,936,2329,3748,29135,29113,29140,29170,29144,1472,1322,2803,1406,2122,2641,1129,1160,979,883,1573,1749,29206,29148,2147483647,64718,63,520,13265,63254,7573,5471,0,3,3,2
go to fist,18:06:07.920,29153,7303,3164,1757,1037,1511,830,1669,1630,883,931,2324,3717,29078,29113,29140,29122,29122,1472,1300,2812,1415,2166,2742,1129,1151,944,918,1564,1687,29179,29188,2147483647,64713,64,520,13260,63244,7572,5480,0,3,3,2
go to fist,18:06:08.029,29188,7356,3133,1766,1098,1516,799,1669,1617,922,940,2355,3757,29144,29170,29197,29170,29144,1485,1309,2834,1458,2148,2693,1129,1155,927,900,1546,1709,29166,29232,2147483647,64716,58,517,13257,63230,7567,5487,0,3,3,2
go to fist,18:06:08.129,29122,7347,3212,1749,1067,1480,821,1612,1621,892,975,2390,3739,29162,29188,29197,29192,29184,1472,1291,2838,1419,2210,2676,1094,1125,966,927,1546,1669,29148,29144,2147483647,64710,54,523,13251,63222,7567,5498,0,3,3,2
go to fist,18:06:08.220,29047,7374,3260,1731,1050,1511,843,1599,1617,892,940,2377,3761,29197,29144,29170,29192,29096,1502,1318,2838,1406,2126,2715,1120,1107,896,905,1546,1705,29065,28981,2147483647,64726,61,518,13249,63205,7560,5504,0,3,3,2
go to fist,18:06:08.245,29179,7400,3190,1770,1054,1494,839,1639,1612,931,971,2403,3796,29179,29118,29214,29144,29078,1498,1287,2803,1437,2175,2707,1133,1164,966,940,1568,1718,29166,29162,2147483647,64722,61,520,13251,63189,7553,5502,0,3,3,2
go to fist,18:06:08.419,29131,7404,3265,1753,1059,1502,826,1630,1617,887,927,2443,3792,29153,29122,29078,29122,29197,1498,1327,2816,1401,2192,2645,1133,1103,958,918,1551,1757,29144,29170,2147483647,64711,54,513,13247,63183,7560,5501,0,3,3,2
go to fist,18:06:08.519,29175,7395,3229,1740,1063,1489,812,1595,1625,892,922,2381,3757,29153,29170,29162,29122,29166,1489,1305,2772,1445,2126,2649,1072,1116,936,892,1573,1718,29162,29170,2147483647,64716,60,517,13247,63183,7562,5498,0,3,3,2
go to fist,18:06:08.620,29201,7391,3300,1735,1081,1524,834,1604,1599,870,931,2425,3805,29131,29083,29074,29109,29096,1489,1327,2830,1379,2153,2676,1094,1142,1001,953,1599,1705,29118,29140,2147483647,64713,55,521,13249,63173,7560,5493,0,3,3,2
go to fist,18:06:08.729,29104,7439,3317,1744,1037,1516,812,1568,1595,887,892,2421,3823,29192,29153,29148,29148,29135,1494,1313,2834,1362,2162,2707,1116,1190,958,927,1538,1722,29241,29197,2147483647,64713,51,519,13251,63163,7555,5490,0,3,3,2
go to fist,18:06:08.819,29214,7492,3326,1700,1116,1551,821,1582,1590,852,927,2355,3801,29118,29096,29131,29100,29148,1450,1309,2816,1415,2131,2645,1081,1081,993,949,1560,1683,29263,29232,2147483647,64713,58,517,13254,63147,7542,5494,0,3,3,2
go to fist,18:06:08.919,29210,7483,3313,1731,1094,1542,804,1582,1612,865,949,2386,3770,29162,29135,29157,29162,29153,1502,1309,2869,1419,2179,2614,1089,1168,984,918,1568,1700,29201,29175,2147483647,64717,56,517,13252,63146,7537,5504,0,3,3,2
go to fist,18:06:08.946,29219,7470,3353,1744,1023,1542,834,1604,1595,927,975,2377,3766,29210,29162,29170,29192,29118,1454,1305,2812,1366,2122,2654,1085,1160,927,918,1582,1709,29126,29201,2147483647,64716,52,514,13250,63139,7531,5515,0,3,3,2
go to fist,18:06:09.043,29166,7488,3326,1735,1081,1538,795,1590,1538,931,971,2386,3761,29197,29131,29153,29170,29109,1445,1318,2816,1410,2131,2619,1133,1103,958,931,1564,1735,29153,29188,2147483647,64719,58,529,13253,63134,7524,5514,0,3,3,2
go to fist,18:06:09.219,29214,7453,3344,1735,1067,1524,791,1520,1604,892,988,2381,3752,29201,29118,29065,29104,29135,1463,1296,2852,1388,2122,2619,1103,1120,966,949,1542,1700,29087,29153,2147483647,64713,57,522,13258,63130,7514,5515,0,3,3,2
go to fist,18:06:09.320,29236,7470,3388,1762,1045,1564,799,1542,1538,892,979,2342,3744,29241,29131,29148,29109,29144,1476,1318,2825,1415,2166,2627,1155,1129,962,909,1551,1740,29175,29188,2147483647,64718,55,524,13261,63122,7501,5521,0,3,3,2
go to fist,18:06:09.420,29109,7470,3344,1766,1067,1555,791,1511,1533,905,962,2342,3730,29197,29118,29162,29135,29078,1454,1318,2772,1388,2118,2627,1125,1155,927,870,1573,1749,29109,29153,2147483647,64711,57,522,13261,63123,7496,5528,0,3,3,2
go to fist,18:06:09.519,29153,7501,3335,1735,1037,1516,799,1551,1551,892,949,2390,3730,29201,29170,29148,29148,29184,1450,1261,2825,1357,2091,2592,1098,1160,944,918,1586,1696,29118,29144,2147483647,64725,58,519,13262,63113,7488,5533,0,3,3,2
go to fist,18:06:09.619,29153,7448,3388,1775,1063,1586,812,1586,1560,887,962,2390,3757,29140,29162,29157,29100,29148,1467,1261,2843,1410,2065,2592,1120,1164,931,883,1568,1713,29144,29148,2147483647,64714,63,521,13264,63108,7480,5537,0,3,3,2
go to fist,18:06:09.720,29201,7501,3335,1731,1076,1551,861,1520,1555,927,958,2377,3770,29184,29214,29148,29135,29144,1494,1309,2834,1406,2135,2610,1089,1103,966,909,1551,1731,29166,29148,2147483647,64718,56,524,13267,63102,7468,5544,0,3,3,2
go to fist,18:06:09.819,29096,7501,3322,1713,1076,1599,812,1542,1546,892,944,2425,3792,29206,29100,29153,29157,29109,1445,1313,2874,1406,2131,2601,1120,1138,984,905,1573,1705,29148,29122,2147483647,64727,49,537,13271,63089,7452,5549,0,3,3,2
go to fist,18:06:09.919,29201,7536,3414,1749,1067,1511,843,1511,1551,918,958,2359,3757,29179,29131,29148,29175,29135,1498,1274,2825,1458,2100,2641,1085,1111,975,927,1573,1784,29153,29175,2147483647,64718,54,527,13278,63079,7437,5549,0,3,3,2
go to fist,18:06:10.019,29140,7541,3383,1749,1059,1568,839,1538,1507,922,931,2337,3788,29179,29126,29109,29162,29113,1480,1296,2878,1397,2100,2619,1111,1120,993,958,1590,1735,29188,29144,2147483647,64717,50,526,13270,63063,7443,5552,0,3,3,2
wait in fist,18:06:10.120,29179,7475,3388,1744,1045,1582,804,1599,1546,878,962,2368,3774,29188,29118,29135,29109,29118,1494,1270,2900,1406,2109,2663,1089,1111,958,905,1511,1700,29184,29157,2147483647,64716,49,528,13266,63053,7446,5552,0,3,3,2
wait in fist,18:06:10.219,29206,7488,3366,1753,1085,1542,834,1516,1524,887,984,2364,3801,29162,29157,29126,29122,29126,1472,1327,2834,1388,2113,2614,1111,1129,953,905,1529,1722,29148,29206,2147483647,64721,47,522,13264,63050,7449,5551,0,3,3,2
wait in fist,18:06:10.319,29228,7483,3379,1744,1054,1551,808,1538,1511,865,953,2390,3748,29228,29157,29122,29126,29153,1489,1327,2838,1388,2083,2654,1116,1160,1006,887,1529,1735,29175,29219,2147483647,64722,46,524,13262,63044,7450,5554,0,3,3,2
wait in fist,18:06:10.342,29219,7514,3440,1740,1076,1577,808,1538,1542,887,953,2355,3779,29175,29104,29144,29170,29162,1485,1270,2838,1428,2100,2649,1116,1129,971,918,1573,1740,29162,29197,2147483647,64718,57,532,13259,63047,7452,5559,0,3,3,2
wait in fist,18:06:10.520,29223,7505,3414,1735,1125,1546,830,1577,1494,905,944,2355,3730,29214,29188,29188,29184,29122,1458,1313,2830,1366,2078,2610,1045,1168,971,922,1590,1740,29126,29197,2147483647,64716,44,533,13256,63038,7449,5566,0,3,3,2
wait in fist,18:06:10.619,29166,7457,3331,1727,1063,1560,817,1542,1489,914,953,2377,3823,29192,29131,29148,29069,29122,1502,1318,2764,1353,2074,2623,1120,1107,936,887,1533,1722,29166,29170,2147483647,64722,50,525,13253,63034,7456,5564,0,3,3,2
wait in fist,18:06:10.645,29184,7497,3353,1713,1037,1555,817,1511,1546,900,953,2364,3792,29179,29131,29104,29096,29140,1524,1331,2838,1450,2065,2592,1094,1146,940,936,1599,1735,29126,29184,2147483647,64716,47,530,13248,63030,7463,5563,0,3,3,2
wait in fist,18:06:10.830,29175,7470,3383,1727,1107,1551,834,1542,1507,914,944,2368,3770,29148,29148,29140,29118,29122,1480,1331,2825,1432,2091,2627,1085,1129,958,914,1573,1731,29250,29201,2147483647,64720,45,528,13250,63026,7454,5568,0,3,3,2
wait in fist,18:06:10.939,29087,7519,3331,1753,1098,1577,812,1560,1533,892,940,2364,3770,29184,29206,29175,29214,29232,1494,1313,2838,1388,2065,2641,1059,1125,966,931,1604,1757,29140,29096,2147483647,64718,47,520,13247,63013,7450,5575,0,3,3,2
wait in fist,18:06:10.967,29228,7510,3344,1718,1125,1542,834,1538,1502,878,936,2329,3752,29118,29148,29175,29201,29140,1476,1327,2825,1393,2083,2605,1085,1129,953,900,1551,1735,29153,29258,2147483647,64719,51,519,13247,63010,7449,5576,0,3,3,2
wait in fist,18:06:11.119,29078,7501,3335,1722,1054,1520,808,1520,1538,922,931,2359,3761,29236,29223,29126,29131,29214,1472,1322,2869,1397,2056,2601,1081,1120,966,931,1599,1727,29104,29153,2147483647,64715,43,522,13248,63011,7448,5575,0,3,3,2
wait in fist,18:06:11.220,29250,7510,3396,1766,1085,1582,795,1542,1494,870,958,2368,3774,29219,29157,29118,29122,29096,1463,1300,2843,1423,2030,2583,1111,1120,931,940,1595,1683,29126,29179,2147483647,64713,44,526,13250,63018,7449,5572,0,3,3,2
wait in fist,18:06:11.319,29214,7466,3388,1744,1072,1516,821,1568,1555,870,927,2355,3827,29214,29118,29065,29083,29126,1445,1296,2808,1410,2021,2627,1151,1125,922,918,1560,1718,29170,29236,2147483647,64718,45,529,13252,63019,7447,5572,0,3,3,2
wait in fist,18:06:11.419,29241,7479,3326,1740,1059,1524,777,1507,1524,892,944,2320,3739,29241,29170,29131,29126,29135,1485,1305,2834,1415,2043,2605,1120,1133,966,918,1573,1713,29113,29258,2147483647,64716,45,522,13257,63017,7441,5565,0,3,3,2
wait in fist,18:06:11.520,29241,7470,3344,1722,1107,1538,821,1568,1507,856,940,2337,3766,29197,29179,29096,29100,29148,1494,1291,2852,1384,2069,2614,1120,1155,940,931,1529,1749,29131,29263,2147483647,64717,45,529,13259,63018,7438,5566,0,3,3,2
wait in fist,18:06:11.620,29236,7514,3392,1744,1111,1546,817,1538,1498,936,940,2351,3774,29214,29197,29109,29100,29206,1467,1296,2803,1437,2065,2649,1094,1076,953,900,1568,1740,29144,29201,2147483647,64716,41,524,13262,63019,7433,5565,0,3,3,2
wait in fist,18:06:11.719,29179,7479,3375,1727,1063,1595,821,1516,1542,892,975,2386,3748,29228,29148,29104,29140,29122,1463,1313,2852,1401,2025,2605,1094,1129,953,931,1555,1705,29162,29184,2147483647,64725,43,527,13256,63019,7450,5557,0,3,3,2
wait in fist,18:06:11.744,29250,7567,3375,1753,1050,1577,804,1555,1498,861,958,2364,3739,29241,29197,29170,29157,29206,1467,1274,2812,1472,2008,2597,1081,1107,958,944,1573,1757,29170,29271,2147483647,64716,46,521,13253,63017,7454,5556,0,3,3,2
wait in fist,18:06:11.841,29236,7479,3370,1735,1041,1577,817,1546,1520,887,940,2390,3757,29153,29144,29122,29135,29210,1511,1309,2847,1428,2008,2627,1089,1107,927,887,1595,1731,29210,29210,2147483647,64714,47,528,13255,63020,7452,5557,0,3,3,2
wait in fist,18:06:11.950,29223,7492,3423,1749,1076,1568,812,1538,1498,865,940,2337,3801,29206,29122,29104,29113,29144,1467,1331,2830,1401,2012,2610,1089,1111,944,918,1560,1705,29109,29254,2147483647,64715,40,519,13254,63025,7450,5564,0,3,3,2
wait in fist,18:06:12.043,29122,7514,3388,1722,1045,1604,843,1551,1511,874,979,2320,3796,29166,29144,29087,29113,29175,1472,1296,2838,1441,2017,2592,1059,1146,971,927,1560,1687,29135,29179,2147483647,64718,46,525,13253,63026,7454,5562,0,3,3,2
wait in fist,18:06:12.144,29250,7536,3388,1757,1054,1573,782,1520,1524,878,936,2333,3792,29210,29175,29157,29140,29184,1472,1309,2878,1397,2034,2566,1072,1138,1006,905,1538,1709,29206,29241,2147483647,64719,46,524,13252,63025,7454,5562,0,3,3,2
wait in fist,18:06:12.244,29223,7514,3357,1749,1085,1502,826,1502,1498,914,953,2355,3783,29245,29157,29144,29153,29184,1476,1278,2821,1397,2034,2605,1151,1094,927,905,1551,1669,29157,29214,2147483647,64716,45,520,13253,63025,7454,5562,0,3,3,2
wait in fist,18:06:12.419,29210,7527,3379,1713,1054,1546,799,1546,1472,870,958,2359,3766,29188,29197,29157,29170,29241,1480,1274,2852,1437,2034,2605,1111,1142,949,927,1560,1696,29206,29228,2147483647,64721,40,525,13253,63023,7450,5564,0,3,3,2
wait in fist,18:06:12.441,29236,7505,3440,1749,1081,1524,791,1546,1524,900,949,2337,3717,29192,29140,29153,29118,29214,1445,1322,2803,1410,2061,2614,1076,1107,944,905,1524,1735,29170,29197,2147483647,64718,46,529,13250,63016,7451,5567,0,3,3,2
wait in fist,18:06:12.545,29157,7492,3379,1727,1081,1551,812,1507,1520,874,940,2342,3761,29184,29201,29135,29170,29214,1480,1287,2852,1432,2030,2562,1098,1111,958,896,1560,1718,29153,29201,2147483647,64722,42,518,13251,63010,7445,5571,0,3,3,2
wait in fist,18:06:12.720,29228,7492,3449,1735,1072,1538,812,1485,1520,856,905,2342,3766,29184,29153,29122,29104,29170,1450,1313,2838,1388,1990,2592,1067,1094,953,887,1529,1722,29184,29192,2147483647,64713,51,527,13251,63013,7445,5574,0,3,3,2
wait in fist,18:06:12.819,29241,7514,3379,1713,1107,1551,804,1520,1489,892,966,2337,3783,29254,29206,29192,29162,29223,1520,1278,2830,1419,2034,2605,1103,1142,927,870,1533,1744,29228,29241,2147483647,64716,41,524,13248,63014,7447,5576,0,3,3,2
wait in fist,18:06:12.919,29201,7532,3401,1722,1085,1542,821,1546,1485,914,900,2346,3827,29148,29162,29096,29166,29192,1485,1287,2816,1401,2043,2597,1138,1098,936,909,1555,1691,29184,29188,2147483647,64724,43,526,13247,63010,7451,5572,0,3,3,2
wait in fist,18:06:13.020,29214,7497,3440,1727,1085,1538,782,1524,1476,870,949,2337,3827,29228,29223,29148,29162,29197,1516,1261,2803,1388,2030,2579,1050,1125,953,922,1595,1713,29197,29201,2147483647,64719,42,524,13242,63009,7457,5577,0,3,3,2
wait in fist,18:06:13.045,29206,7488,3379,1753,1041,1529,804,1538,1507,914,940,2346,3774,29214,29166,29100,29219,29179,1472,1313,2830,1401,2047,2605,1076,1103,971,927,1511,1718,29148,29179,2147483647,64709,45,526,13235,63008,7466,5580,0,3,3,2
wait in fist,18:06:13.229,29131,7483,3436,1700,1129,1546,839,1533,1502,900,922,2315,3726,29192,29144,29069,29056,29179,1516,1300,2821,1419,2061,2605,1085,1138,958,900,1538,1727,29091,29153,2147483647,64713,41,529,13228,63004,7477,5581,0,3,3,2
wait in fist,18:06:13.319,29074,7479,3375,1749,1059,1551,821,1529,1529,843,958,2298,3739,29201,29179,29096,29157,29210,1463,1318,2786,1397,2061,2623,1050,1103,949,936,1538,1705,29131,29109,2147483647,64720,45,522,13222,62990,7478,5586,0,3,3,2
wait in fist,18:06:13.344,29197,7541,3366,1709,1076,1516,764,1516,1472,914,953,2311,3717,29206,29192,29113,29096,29201,1467,1265,2830,1428,2025,2610,1067,1160,922,887,1546,1705,29179,29175,2147483647,64718,40,523,13219,62971,7473,5592,0,3,3,2
wait in fist,18:06:13.442,29192,7514,3353,1757,1054,1529,791,1529,1502,826,944,2271,3774,29206,29192,29122,29184,29157,1463,1305,2808,1401,2056,2583,1072,1129,958,936,1568,1718,29184,29157,2147483647,64716,46,522,13215,62961,7471,5599,0,3,3,2
wait in fist,18:06:13.619,29228,7527,3379,1735,1067,1538,812,1516,1507,874,918,2302,3726,29201,29184,29162,29140,29192,1419,1265,2812,1406,2078,2557,1098,1076,953,874,1546,1700,29175,29100,2147483647,64714,38,510,13213,62955,7470,5602,0,3,3,2
wait in fist,18:06:13.720,29184,7514,3388,1731,1103,1538,826,1524,1507,905,927,2342,3770,29201,29241,29170,29166,29210,1458,1313,2843,1388,2043,2610,1111,1129,975,900,1542,1696,29188,29166,2147483647,64722,37,516,13215,62951,7469,5598,0,3,3,2
wait in fist,18:06:13.743,29184,7527,3423,1727,1072,1577,804,1529,1507,834,905,2311,3779,29153,29188,29179,29144,29184,1463,1300,2790,1393,2030,2562,1085,1138,953,914,1520,1665,29131,29131,2147483647,64717,42,515,13215,62951,7468,5598,0,3,3,2
wait in fist,18:06:14.043,29175,7492,3366,1718,1098,1546,834,1494,1489,896,936,2298,3770,29232,29166,29135,29131,29206,1480,1265,2808,1423,2083,2588,1085,1120,975,914,1507,1683,29192,29197,2147483647,64718,41,524,13234,62976,7450,5589,0,3,3,2
wait in fist,18:06:14.245,29192,7514,3379,1727,1076,1546,795,1520,1516,887,958,2368,3840,29298,29241,29179,29184,29192,1489,1287,2825,1406,1986,2605,1142,1142,971,962,1582,1727,29118,29228,2147483647,64713,45,522,13233,62983,7449,5595,0,3,3,2
wait in fist,18:06:14.342,29188,7514,3383,1753,1067,1555,782,1516,1485,870,962,2333,3766,29175,29179,29170,29179,29157,1472,1309,2834,1450,2039,2601,1111,1142,993,940,1516,1678,29122,29184,2147483647,64715,43,532,13233,62986,7449,5598,0,3,3,2
wait in fist,18:06:14.520,29197,7532,3361,1691,1037,1538,786,1529,1494,861,962,2302,3766,29232,29135,29126,29179,29192,1458,1305,2803,1415,2030,2597,1089,1116,931,927,1524,1687,29175,29175,2147483647,64717,43,524,13234,62988,7446,5599,0,3,3,2
wait in fist,18:06:14.620,29188,7523,3392,1731,1089,1560,834,1555,1498,892,958,2337,3744,29263,29162,29192,29131,29210,1450,1331,2808,1371,2039,2610,1085,1138,944,892,1516,1709,29162,29175,2147483647,64726,40,524,13233,62987,7448,5599,0,3,3,2
wait in fist,18:06:14.643,29223,7510,3344,1700,1094,1560,848,1555,1502,878,944,2333,3761,29241,29192,29179,29113,29192,1450,1296,2808,1397,2047,2619,1098,1111,927,896,1546,1727,29140,29100,2147483647,64718,45,528,13234,62988,7446,5599,0,3,3,2
wait in fist,18:06:14.819,29140,7536,3388,1718,1067,1573,804,1538,1472,900,984,2342,3739,29170,29179,29148,29144,29192,1467,1313,2781,1397,2074,2575,1085,1138,949,905,1542,1705,29197,29162,2147483647,64716,39,530,13235,62992,7443,5604,0,3,3,2
wait in fist,18:06:14.841,29162,7519,3418,1705,1089,1577,804,1494,1498,905,918,2320,3739,29214,29170,29148,29144,29245,1450,1309,2816,1393,2065,2562,1089,1076,971,909,1573,1696,29201,29179,2147483647,64719,47,524,13235,62993,7442,5605,0,3,3,2
fist to pinky,18:06:15.020,29166,7523,3348,1731,1045,1529,808,1489,1463,874,1001,2346,3783,29232,29184,29140,29162,29241,1472,1322,2830,1406,2021,2619,1103,1133,975,918,1529,1722,29170,29210,2147483647,64718,39,524,13235,62992,7441,5606,0,3,3,2
fist to pinky,18:06:15.043,29153,7510,3353,1705,1072,1538,804,1568,1485,909,962,2359,3730,29293,29170,29157,29188,29210,1458,1265,2821,1415,2039,2601,1094,1098,958,927,1555,1718,29148,29210,2147483647,64717,38,528,13235,62992,7441,5606,0,3,3,2
fist to pinky,18:06:15.144,29228,7497,3370,1744,1059,1524,817,1524,1489,878,949,2342,3752,29214,29166,29126,29104,29214,1441,1327,2816,1388,2021,2579,1076,1120,914,914,1560,1753,29131,29232,2147483647,64721,39,524,13236,62992,7440,5605,0,3,3,2
fist to pinky,18:06:15.320,29192,7527,3344,1727,1094,1551,804,1529,1498,870,953,2315,3757,29245,29219,29118,29140,29184,1441,1296,2777,1450,2087,2579,1129,1107,966,931,1551,1643,29135,29201,2147483647,64717,39,529,13237,62990,7440,5601,0,3,3,2
fist to pinky,18:06:15.419,29201,7510,3405,1740,1098,1524,791,1533,1498,870,931,2298,3695,29214,29148,29104,29140,29188,1467,1287,2786,1406,2047,2562,1089,1146,975,936,1524,1713,29166,29201,2147483647,64718,39,525,13238,62990,7439,5601,0,3,3,2
fist to pinky,18:06:15.519,29091,7444,3357,1731,1120,1538,817,1533,1494,843,931,2307,3752,29241,29175,29175,29184,29184,1458,1283,2834,1375,2087,2597,1063,1111,966,909,1573,1687,29144,29201,2147483647,64718,40,526,13238,62991,7438,5602,0,3,3,2
fist to pinky,18:06:15.620,29206,7505,3383,1727,1094,1568,804,1502,1480,887,914,2298,3722,29210,29126,29153,29166,29188,1480,1287,2759,1419,2034,2566,1089,1133,944,887,1560,1722,29118,29201,2147483647,64717,44,528,13236,62991,7441,5604,0,3,3,2
fist to pinky,18:06:15.645,29175,7497,3348,1727,1111,1551,791,1511,1498,883,914,2355,3748,29250,29201,29148,29153,29201,1480,1309,2790,1379,2061,2570,1111,1125,971,900,1542,1696,29157,29144,2147483647,64722,43,523,13232,62994,7445,5610,0,3,3,2
fist to pinky,18:06:15.819,29170,7519,3414,1718,1081,1533,821,1538,1507,874,953,2324,3700,29206,29153,29122,29166,29228,1450,1291,2794,1401,2074,2583,1072,1107,966,856,1573,1691,29148,29148,2147483647,64717,37,528,13231,62991,7443,5613,0,3,3,2
fist to pinky,18:06:15.841,29162,7519,3361,1713,1072,1533,834,1511,1485,861,931,2298,3730,29254,29219,29179,29175,29223,1445,1283,2812,1393,2047,2579,1120,1107,966,927,1551,1696,29162,29188,2147483647,64718,46,523,13227,62995,7444,5621,0,3,3,2
fist to pinky,18:06:16.020,29206,7501,3388,1766,1094,1546,782,1538,1467,900,958,2302,3700,29232,29175,29148,29148,29170,1423,1309,2816,1397,2052,2605,1107,1107,949,931,1516,1674,29179,29241,2147483647,64717,47,526,13219,62995,7456,5626,0,3,3,2
fist to pinky,18:06:16.120,29210,7527,3353,1718,1081,1542,812,1573,1463,918,918,2342,3717,29236,29179,29096,29078,29166,1437,1335,2838,1410,2083,2540,1116,1146,953,892,1551,1687,28872,29197,2147483647,64720,43,531,13214,63008,7471,5621,0,3,3,2
fist to pinky,18:06:16.145,29162,7541,3480,1709,1098,1568,799,1538,1480,870,975,2324,3730,29223,29210,29157,29109,29170,1489,1283,2830,1441,2065,2636,1076,1125,949,914,1560,1718,29118,29166,2147483647,64720,47,528,13216,63006,7465,5625,0,3,3,2
fist to pinky,18:06:16.255,29144,7523,3401,1731,1094,1542,791,1555,1494,896,918,2333,3757,29267,29188,29192,29197,29175,1476,1287,2799,1401,2065,2575,1098,1103,962,900,1538,1678,29104,29135,2147483647,64712,44,530,13215,62990,7455,5635,0,3,3,2
fist to pinky,18:06:16.420,29179,7554,3427,1722,1041,1560,812,1511,1494,900,949,2329,3744,29192,29214,29109,29166,29197,1450,1270,2869,1388,2087,2548,1098,1107,914,905,1604,1718,29175,29197,2147483647,64716,49,526,13214,62970,7450,5634,0,3,3,2
fist to pinky,18:06:16.442,29188,7527,3436,1718,1103,1564,817,1533,1494,914,931,2333,3849,29245,29170,29118,29113,29201,1445,1296,2860,1432,2052,2592,1081,1146,966,922,1560,1740,29096,29175,2147483647,64722,32,541,13211,62909,7444,5621,0,3,3,2
fist to pinky,18:06:16.619,29210,7536,3423,1731,1081,1529,817,1564,1524,878,936,2320,3752,29250,29188,29144,29201,29223,1472,1278,2874,1441,2052,2671,1059,1116,975,918,1568,1744,29148,29197,2147483647,64712,38,514,13214,62890,7440,5611,0,3,3,2
fist to pinky,18:06:16.643,29201,7527,3401,1770,1059,1542,795,1577,1485,883,940,2337,3783,29258,29184,29153,29175,29192,1480,1291,2838,1397,2056,2658,1089,1111,944,949,1516,1731,29179,29175,2147483647,64719,31,514,13215,62879,7440,5600,0,3,3,2
fist to pinky,18:06:16.820,29188,7532,3383,1753,1041,1573,821,1568,1546,883,962,2386,3717,29232,29201,29122,29104,29232,1454,1296,2878,1410,2078,2649,1111,1125,966,940,1542,1727,29034,29241,2147483647,64718,26,509,13227,62853,7424,5582,0,3,3,2
fist to pinky,18:06:16.846,29184,7541,3388,1718,1067,1577,812,1546,1555,878,936,2351,3783,29201,29179,29104,29140,29157,1467,1296,2821,1410,2078,2663,1072,1129,971,927,1533,1722,28964,29192,2147483647,64727,28,522,13230,62831,7417,5575,0,3,3,2
fist to pinky,18:06:17.019,29210,7501,3366,1700,1076,1555,799,1524,1551,856,949,2373,3739,29250,29223,29140,29184,29214,1494,1283,2843,1423,2087,2636,1089,1116,940,909,1533,1740,28911,29162,2147483647,64716,25,515,13231,62825,7413,5575,0,3,3,2
fist to pinky,18:06:17.043,29179,7470,3361,1735,1107,1520,817,1560,1520,874,962,2373,3748,29223,29179,29201,29140,29188,1463,1283,2882,1401,2109,2680,1094,1125,940,914,1564,1762,29039,29214,2147483647,64717,19,518,13234,62817,7405,5575,0,3,3,2
fist to pinky,18:06:17.220,29113,7505,3357,1757,1085,1560,834,1612,1538,865,966,2373,3779,29276,29184,29148,29144,29170,1454,1318,2843,1388,2118,2623,1085,1129,966,927,1564,1753,29034,29184,2147483647,64722,19,518,13238,62813,7399,5570,0,3,3,2
fist to pinky,18:06:17.319,29170,7562,3388,1757,1067,1538,817,1555,1494,914,953,2337,3726,29219,29210,29078,29083,29175,1511,1305,2808,1371,2078,2658,1107,1133,936,905,1560,1757,28990,29184,2147483647,64722,22,524,13238,62805,7399,5567,0,3,3,2
fist to pinky,18:06:17.345,29219,7453,3357,1762,1059,1546,839,1533,1551,892,975,2381,3739,29201,29166,29153,29144,29206,1494,1265,2843,1401,2083,2623,1076,1125,927,892,1564,1722,28942,29188,2147483647,64722,28,526,13240,62799,7394,5567,0,3,3,2
fist to pinky,18:06:17.520,29179,7483,3383,1779,1142,1551,834,1573,1538,856,944,2377,3774,29179,29162,29157,29113,29188,1489,1318,2834,1375,2087,2654,1072,1151,958,936,1560,1757,29061,29192,2147483647,64725,33,532,13240,62797,7393,5565,0,3,3,2
fist to pinky,18:06:17.620,29140,7461,3357,1727,1059,1577,843,1599,1516,883,971,2351,3805,29192,29245,29175,29157,29184,1494,1270,2856,1393,2083,2680,1116,1160,975,958,1520,1709,29017,29157,2147483647,64711,18,525,13239,62794,7393,5567,0,3,3,2
fist to pinky,18:06:17.719,29166,7549,3370,1735,1089,1533,773,1582,1520,865,922,2359,3730,29153,29210,29162,29122,29188,1485,1270,2799,1384,2104,2658,1059,1164,949,940,1560,1678,29087,29140,2147483647,64718,23,521,13238,62788,7394,5564,0,3,3,2
fist to pinky,18:06:17.743,29210,7536,3379,1722,1059,1555,760,1595,1546,878,966,2351,3687,29166,29219,29197,29157,29206,1463,1265,2830,1375,2096,2619,1129,1138,940,918,1524,1727,29025,29162,2147483647,64720,22,527,13241,62787,7386,5566,0,3,3,2
fist to pinky,18:06:17.843,29197,7514,3366,1740,1116,1577,839,1617,1560,878,979,2381,3739,29162,29206,29166,29157,29162,1489,1283,2874,1410,2148,2645,1142,1164,962,905,1529,1656,29078,29175,2147483647,64717,25,524,13244,62787,7382,5566,0,3,3,2
fist to pinky,18:06:18.020,29197,7488,3370,1749,1081,1590,799,1604,1555,927,940,2342,3774,29214,29135,29210,29241,29153,1476,1327,2834,1428,2118,2689,1103,1151,993,918,1546,1713,28981,29214,2147483647,64712,23,530,13251,62791,7370,5568,0,3,3,2
fist to pinky,18:06:18.045,29157,7501,3379,1749,1107,1564,804,1586,1577,909,966,2368,3687,29197,29157,29184,29184,29162,1502,1270,2847,1401,2122,2685,1098,1151,984,892,1511,1718,29003,29223,2147483647,64718,28,513,13251,62791,7367,5571,0,3,3,2
fist to pinky,18:06:18.220,29166,7554,3357,1718,1107,1533,782,1608,1542,900,958,2342,3730,29170,29267,29267,29245,29223,1463,1278,2874,1397,2109,2645,1085,1129,953,905,1564,1713,28973,29219,2147483647,64720,19,521,13249,62789,7370,5570,0,3,3,2
fist to pinky,18:06:18.320,29197,7501,3366,1709,1107,1577,786,1643,1590,905,962,2416,3717,29140,29210,29258,29166,29201,1516,1265,2821,1393,2052,2645,1125,1103,940,900,1538,1727,28964,29210,2147483647,64710,25,515,13244,62791,7377,5576,0,3,3,2
fist to pinky,18:06:18.342,29148,7562,3374,1770,1063,1542,812,1639,1595,856,936,2359,3752,29166,29188,29201,29188,29236,1467,1274,2843,1437,2074,2632,1081,1120,931,909,1542,1753,29069,29144,2147483647,64713,29,519,13236,62787,7384,5583,0,3,3,2
fist to pinky,18:06:18.443,29175,7483,3374,1722,1045,1524,799,1630,1573,892,931,2333,3752,29122,29148,29206,29170,29197,1480,1291,2803,1415,2078,2649,1120,1146,944,874,1529,1735,28946,29188,2147483647,64731,27,523,13230,62780,7390,5585,0,3,3,2
fist to pinky,18:06:18.620,29179,7479,3357,1735,1041,1538,856,1643,1538,900,962,2359,3730,29170,29192,29179,29232,29210,1450,1283,2830,1415,2091,2619,1111,1142,993,918,1546,1735,28986,29144,2147483647,64720,22,527,13222,62773,7397,5593,0,3,3,2
fist to pinky,18:06:18.642,29206,7492,3436,1784,1081,1551,817,1647,1586,909,953,2364,3779,29148,29184,29197,29153,29179,1463,1291,2825,1441,2074,2619,1111,1168,971,927,1568,1718,29104,29179,2147483647,64711,24,513,13215,62769,7401,5601,0,3,3,2
fist to pinky,18:06:18.745,29219,7470,3370,1740,1067,1533,782,1661,1577,892,918,2359,3730,29201,29170,29166,29184,29197,1494,1313,2786,1371,2109,2654,1094,1125,944,878,1568,1749,29122,29162,2147483647,64723,27,529,13208,62760,7406,5606,0,3,3,2
fist to pinky,18:06:18.920,29166,7519,3361,1735,1085,1507,808,1661,1582,870,975,2390,3774,29144,29219,29184,29157,29210,1472,1287,2808,1353,2113,2667,1103,1129,949,883,1577,1744,29043,29175,2147483647,64707,28,520,13198,62750,7422,5604,0,3,3,2
fist to pinky,18:06:18.945,29206,7439,3370,1770,1063,1511,839,1656,1595,870,922,2315,3761,29170,29197,29197,29206,29192,1489,1291,2816,1415,2083,2685,1111,1111,1006,958,1573,1722,29039,29188,2147483647,64716,27,508,13188,62735,7432,5605,0,3,3,2
fist to pinky,18:06:19.120,29175,7510,3313,1740,1028,1520,812,1652,1538,900,971,2373,3748,29170,29236,29157,29214,29236,1489,1296,2860,1410,2118,2614,1116,1138,922,953,1573,1753,29096,29153,2147483647,64703,25,510,13184,62731,7435,5611,0,3,3,2
fist to pinky,18:06:19.220,29228,7466,3309,1779,1085,1560,821,1643,1604,856,944,2373,3770,29179,29166,29184,29188,29219,1454,1300,2808,1401,2131,2645,1160,1116,993,918,1560,1731,28880,29206,2147483647,64710,28,514,13180,62715,7432,5616,0,3,3,2
fist to pinky,18:06:19.320,29157,7479,3405,1744,1067,1533,791,1661,1582,900,931,2320,3792,29118,29228,29197,29157,29214,1467,1300,2777,1415,2091,2645,1098,1160,988,918,1511,1740,29135,29170,2147483647,64713,34,513,13184,62709,7421,5618,0,3,3,2
fist to pinky,18:06:19.420,29157,7457,3322,1744,1072,1516,821,1630,1568,865,914,2377,3735,29175,29236,29153,29219,29201,1489,1274,2808,1419,2052,2610,1089,1133,953,918,1538,1766,29118,29175,2147483647,64714,6,523,13190,62714,7410,5620,0,3,3,2
fist to pinky,18:06:19.529,29201,7470,3357,1740,1050,1494,861,1639,1599,883,975,2359,3770,29170,29184,29197,29210,29254,1458,1283,2803,1371,2087,2597,1116,1151,962,914,1555,1722,29118,29201,2147483647,64705,24,516,13199,62723,7396,5623,0,3,3,2
fist to pinky,18:06:19.553,29021,7483,3357,1779,1076,1524,821,1643,1564,878,949,2403,3766,29078,29285,29184,29144,29175,1432,1270,2821,1437,2069,2649,1129,1120,962,922,1560,1731,29210,29039,2147483647,64717,14,514,13202,62727,7392,5622,0,3,3,2
fist to pinky,18:06:19.652,29135,7510,3331,1722,1085,1546,791,1630,1608,905,900,2395,3788,29122,29228,29192,29228,29263,1480,1313,2794,1419,2100,2566,1142,1155,962,927,1546,1731,29140,29131,2147483647,64711,32,522,13201,62726,7393,5623,0,3,3,2
fist to pinky,18:06:19.742,29135,7483,3396,1775,1076,1511,808,1683,1625,927,953,2395,3761,29144,29201,29157,29131,29144,1524,1243,2852,1410,2087,2619,1094,1125,958,918,1546,1709,29148,29175,2147483647,64716,12,510,13203,62728,7389,5624,0,3,3,2
fist to pinky,18:06:19.919,29144,7510,3405,1718,1076,1520,834,1696,1577,887,940,2425,3761,29219,29236,29170,29271,29192,1454,1274,2808,1415,2056,2610,1142,1116,927,922,1533,1727,29069,29109,2147483647,64712,28,515,13203,62737,7388,5629,0,3,3,2
fist to pinky,18:06:20.020,29113,7615,3471,1744,1050,1529,812,1656,1625,914,953,2346,3730,29131,29267,29201,29223,29223,1524,1291,2825,1415,2069,2597,1133,1120,979,914,1542,1705,29078,29083,2147483647,64714,21,520,13200,62742,7387,5642,0,3,3,2
rest in pinky,18:06:20.045,29162,7620,3524,1762,1059,1538,830,1621,1634,900,966,2364,3757,29210,29267,29219,29206,29289,1485,1305,2838,1384,2065,2557,1133,1120,975,909,1546,1735,29087,29118,2147483647,64719,23,522,13194,62737,7396,5642,0,3,3,2
rest in pinky,18:06:20.145,29065,7589,3458,1705,1067,1498,821,1656,1590,874,905,2377,3730,29210,29214,29228,29214,29197,1458,1309,2786,1410,2118,2605,1164,1168,979,936,1560,1744,29113,29096,2147483647,64712,36,510,13183,62737,7412,5644,0,3,3,2
rest in pinky,18:06:20.246,29140,7615,3449,1753,1067,1524,843,1604,1599,870,931,2377,3779,29166,29228,29179,29214,29245,1463,1300,2799,1393,2078,2592,1111,1129,962,909,1542,1718,29078,29148,2147483647,64713,29,517,13173,62735,7426,5648,0,3,3,2
rest in pinky,18:06:20.420,29162,7558,3458,1727,1067,1546,808,1687,1617,878,975,2399,3744,29206,29166,29140,29148,29232,1485,1309,2799,1432,2104,2597,1155,1195,975,931,1542,1727,29065,29135,2147483647,64721,29,512,13168,62734,7434,5650,0,3,3,2
rest in pinky,18:06:20.520,29109,7562,3467,1722,1072,1516,782,1612,1577,865,922,2364,3722,29228,29219,29228,29241,29232,1450,1287,2786,1397,2074,2575,1103,1151,979,914,1546,1705,29083,29140,2147483647,64715,19,522,13165,62731,7439,5649,0,3,3,2
rest in pinky,18:06:20.544,29170,7624,3476,1749,1050,1524,843,1634,1577,896,971,2390,3708,29201,29214,29135,29148,29241,1445,1287,2816,1393,2056,2597,1142,1133,958,914,1529,1700,29083,29179,2147483647,64712,28,520,13163,62732,7444,5648,0,3,3,2
rest in pinky,18:06:20.843,29131,7527,3467,1797,1059,1494,795,1630,1599,887,927,2355,3744,29135,29206,29214,29179,29192,1437,1270,2808,1401,2065,2570,1116,1116,953,922,1542,1718,29245,29131,2147483647,64720,25,518,13163,62730,7441,5651,0,3,3,2
rest in pinky,18:06:21.045,29065,7549,3432,1731,1116,1507,830,1630,1604,874,966,2399,3708,29214,29276,29170,29170,29241,1454,1318,2834,1406,2109,2570,1116,1111,971,944,1524,1687,29043,29118,2147483647,64710,29,520,13159,62729,7442,5657,0,3,3,2
rest in pinky,18:06:21.220,29091,7554,3410,1740,1037,1524,830,1652,1608,870,949,2337,3713,29197,29271,29179,29228,29201,1437,1248,2830,1397,2078,2614,1098,1138,962,936,1551,1700,29109,29065,2147483647,64707,29,517,13150,62717,7448,5665,0,3,3,2
rest in pinky,18:06:21.320,28951,7505,3370,1766,1107,1489,817,1621,1612,878,962,2351,3752,29166,29250,29166,29166,29192,1476,1305,2786,1397,2008,2570,1116,1120,975,896,1551,1713,29078,29056,2147483647,64712,20,496,13146,62707,7448,5669,0,3,3,2
rest in pinky,18:06:21.419,29021,7492,3366,1740,1059,1489,830,1656,1582,843,953,2359,3730,29228,29219,29197,29179,29236,1489,1305,2750,1379,2069,2588,1081,1182,966,900,1546,1696,29065,28986,2147483647,64704,18,515,13143,62705,7453,5669,0,3,3,2
rest in pinky,18:06:21.520,29087,7549,3396,1749,1067,1502,799,1665,1625,878,940,2351,3748,29197,29162,29175,29166,29219,1454,1287,2830,1401,2069,2557,1094,1151,971,900,1529,1744,29061,29069,2147483647,64701,22,500,13138,62709,7461,5672,0,3,3,2
rest in pinky,18:06:21.620,29104,7523,3388,1735,1085,1494,852,1643,1617,856,949,2364,3700,29153,29192,29210,29179,29192,1454,1291,2852,1432,2074,2588,1129,1107,931,922,1555,1735,29135,29078,2147483647,64717,26,516,13135,62697,7457,5679,0,3,3,2
rest in pinky,18:06:21.643,29025,7589,3401,1735,1094,1511,861,1617,1608,887,971,2355,3735,29192,29170,29192,29232,29179,1454,1296,2799,1432,2109,2540,1160,1138,975,940,1555,1735,29091,29021,2147483647,64697,31,512,13133,62698,7456,5685,0,3,3,2
rest in pinky,18:06:21.744,28999,7523,3361,1749,1076,1476,856,1639,1586,896,962,2346,3739,29197,29254,29241,29166,29258,1458,1318,2838,1406,2078,2562,1146,1146,936,944,1542,1713,29144,29069,2147483647,64712,25,508,13127,62686,7461,5685,0,3,3,2
rest in pinky,18:06:21.920,29087,7510,3361,1731,1067,1494,830,1661,1599,870,940,2337,3713,29201,29157,29144,29201,29179,1463,1318,2860,1406,2096,2570,1107,1125,949,905,1538,1727,29083,29056,2147483647,64694,25,494,13127,62685,7459,5687,0,3,3,2
rest in pinky,18:06:22.020,28986,7488,3379,1731,1081,1529,830,1647,1604,878,971,2351,3726,29206,29140,29179,29206,29241,1454,1309,2843,1362,2039,2623,1129,1146,971,922,1533,1757,29122,29025,2147483647,64711,33,508,13130,62687,7460,5681,0,3,3,2
rest in pinky,18:06:22.130,29153,7514,3366,1757,1059,1542,826,1647,1608,887,953,2390,3726,29188,29166,29214,29197,29179,1458,1296,2794,1393,2047,2566,1116,1094,944,931,1555,1722,29074,29030,2147483647,64712,26,500,13136,62691,7454,5676,0,3,3,2
rest in pinky,18:06:22.156,29175,7501,3273,1749,1063,1472,769,1656,1582,892,944,2364,3695,29113,29012,29192,29201,29034,1472,1291,2799,1437,2100,2588,1089,1103,971,922,1555,1722,29170,29184,2147483647,64701,30,508,13141,62697,7449,5675,0,3,3,2
rest in pinky,18:06:22.320,29104,7470,3353,1727,1094,1480,791,1604,1604,905,971,2390,3748,29214,29162,29267,29223,29166,1445,1287,2812,1419,2034,2570,1116,1098,975,931,1573,1696,29126,29188,2147483647,64708,28,506,13143,62699,7445,5676,0,3,3,2
rest in pinky,18:06:22.420,29017,7510,3361,1713,1063,1516,804,1617,1617,896,936,2302,3717,29197,29184,29170,29184,29236,1419,1296,2812,1432,2056,2540,1116,1142,949,887,1524,1700,29083,29148,2147483647,64706,22,508,13145,62698,7443,5675,0,3,3,2
rest in pinky,18:06:22.519,29078,7475,3326,1718,1067,1480,795,1643,1577,883,944,2333,3752,29184,29201,29188,29192,29232,1406,1305,2808,1397,2061,2579,1120,1133,988,927,1507,1696,29118,29091,2147483647,64706,28,515,13148,62702,7438,5674,0,3,3,2
rest in pinky,18:06:22.620,29126,7488,3361,1749,1089,1516,791,1652,1599,874,949,2289,3735,29206,29184,29188,29232,29206,1454,1283,2812,1432,2061,2575,1146,1164,940,918,1538,1687,29091,29126,2147483647,64715,27,518,13150,62704,7435,5675,0,3,3,2
rest in pinky,18:06:22.720,29087,7461,3353,1744,1067,1516,817,1630,1625,870,949,2342,3691,29241,29144,29179,29206,29144,1450,1291,2794,1384,2069,2575,1129,1151,971,931,1551,1700,29175,29047,2147483647,64710,29,504,13152,62707,7429,5679,0,3,3,2
rest in pinky,18:06:22.820,29109,7475,3326,1744,1050,1485,808,1634,1612,896,944,2293,3722,29192,29197,29228,29210,29228,1463,1291,2794,1437,2047,2548,1120,1125,953,887,1538,1696,29170,29113,2147483647,64706,18,507,13151,62709,7431,5682,0,3,3,2
rest in pinky,18:06:22.845,29118,7505,3344,1718,1081,1507,834,1625,1582,852,936,2342,3766,29135,29210,29201,29201,29157,1476,1296,2781,1406,2065,2562,1103,1120,962,914,1564,1696,29047,28986,2147483647,64708,20,507,13155,62708,7425,5680,0,3,3,2
rest in pinky,18:06:22.943,29034,7488,3322,1718,1059,1511,817,1612,1599,874,953,2329,3757,29228,29206,29206,29245,29179,1393,1300,2750,1419,2078,2531,1129,1120,962,922,1546,1691,29113,29052,2147483647,64704,29,509,13154,62710,7425,5683,0,3,3,2
rest in pinky,18:06:23.041,29126,7475,3331,1718,1107,1489,808,1647,1599,865,918,2359,3739,29166,29166,29188,29223,29201,1428,1322,2799,1419,2118,2553,1111,1120,958,914,1533,1700,29157,29104,2147483647,64709,25,510,13152,62714,7426,5689,0,3,3,2
rest in pinky,18:06:23.220,29144,7470,3348,1753,1067,1524,773,1617,1590,883,922,2311,3726,29170,29241,29162,29192,29210,1415,1291,2742,1397,2039,2570,1151,1120,922,922,1551,1713,29131,29109,2147483647,64707,33,516,13152,62718,7426,5689,0,3,3,2
rest in pinky,18:06:23.244,29104,7457,3353,1731,1063,1538,812,1634,1590,927,940,2329,3730,29144,29166,29214,29188,29170,1432,1305,2790,1415,2008,2583,1089,1125,958,900,1555,1709,29148,29078,2147483647,64721,25,506,13151,62714,7426,5690,0,3,3,2
rest in pinky,18:06:23.420,28990,7457,3313,1740,1054,1524,786,1582,1630,922,949,2307,3739,29179,29170,29210,29210,29214,1502,1265,2781,1371,2034,2583,1120,1133,953,900,1524,1749,29104,29096,2147483647,64712,26,515,13151,62712,7427,5688,0,3,3,2
rest in pinky,18:06:23.443,29144,7470,3366,1749,1067,1489,812,1647,1604,892,949,2320,3704,29153,29188,29223,29192,29241,1458,1283,2816,1410,2056,2583,1120,1129,971,892,1564,1691,29074,29109,2147483647,64715,13,517,13149,62709,7430,5688,0,3,3,2
rest in pinky,18:06:23.545,29126,7466,3326,1749,1072,1485,834,1612,1573,914,900,2320,3757,29188,29219,29250,29245,29236,1485,1305,2830,1415,2065,2487,1125,1164,971,905,1524,1691,29109,29056,2147483647,64715,27,508,13143,62701,7436,5688,0,3,3,2
rest in pinky,18:06:23.720,29030,7457,3326,1735,1085,1463,799,1599,1595,887,944,2346,3779,29109,29188,29162,29184,29184,1476,1300,2794,1410,2056,2509,1111,1138,918,892,1520,1718,29078,29056,2147483647,64702,23,514,13138,62700,7440,5696,0,3,3,2
rest in pinky,18:06:23.820,29012,7444,3317,1713,1050,1476,795,1617,1621,874,927,2364,3708,29197,29188,29162,29245,29170,1485,1300,2799,1410,2043,2544,1076,1094,966,909,1533,1740,29021,29012,2147483647,64701,26,518,13128,62711,7447,5714,0,3,3,2
rest in pinky,18:06:23.851,29214,7448,3326,1722,1054,1476,808,1639,1546,887,918,2333,3730,29188,29122,29096,29091,29078,1428,1291,2830,1450,2012,2535,1129,1142,940,927,1560,1700,29232,29228,2147483647,64711,27,505,13124,62709,7452,5716,0,3,3,2
rest in pinky,18:06:23.941,29017,7439,3375,1722,1054,1502,826,1608,1595,887,944,2337,3708,29148,29157,29245,29197,29250,1401,1256,2843,1401,2087,2575,1120,1155,962,905,1542,1678,29131,28973,2147483647,64713,30,514,13122,62704,7457,5712,0,3,3,2
rest in pinky,18:06:24.120,29069,7475,3295,1722,1094,1485,808,1617,1595,878,918,2324,3717,29179,29254,29250,29245,29166,1441,1274,2786,1340,2017,2557,1133,1116,927,918,1546,1696,29166,29039,2147483647,64724,24,518,13119,62700,7459,5713,0,3,3,2
rest in pinky,18:06:24.220,29030,7431,3357,1735,1076,1476,808,1577,1582,892,936,2293,3748,29197,29126,29179,29162,29140,1406,1318,2808,1419,2034,2531,1116,1138,936,918,1507,1691,29078,28959,2147483647,64711,29,508,13120,62694,7454,5716,0,3,3,2
rest in pinky,18:06:24.320,29157,7444,3326,1696,1103,1511,791,1647,1599,861,962,2329,3687,29197,29122,29219,29214,29135,1432,1256,2764,1393,2021,2588,1076,1151,993,905,1551,1735,29192,29201,2147483647,64704,25,511,13117,62696,7451,5726,0,3,3,2
rest in pinky,18:06:24.420,29144,7453,3370,1718,1045,1533,843,1621,1573,914,975,2315,3726,29210,29210,29285,29206,29236,1472,1309,2799,1415,2056,2548,1125,1111,953,892,1546,1696,29083,29126,2147483647,64714,27,515,13123,62696,7446,5720,0,3,3,2
rest in pinky,18:06:24.443,29201,7470,3335,1727,1059,1458,826,1608,1590,909,944,2315,3713,29214,29197,29170,29263,29162,1428,1278,2803,1397,1995,2548,1155,1138,958,931,1560,1731,29188,29210,2147483647,64704,22,519,13121,62705,7461,5709,0,3,3,2
rest in pinky,18:06:24.544,29184,7461,3331,1740,1054,1507,808,1661,1608,900,984,2298,3744,29175,29241,29170,29223,29162,1450,1300,2799,1437,2069,2522,1164,1164,971,936,1507,1687,29153,29109,2147483647,64709,24,506,13117,62698,7471,5701,0,3,3,2
rest in pinky,18:06:24.720,29170,7457,3344,1744,1085,1529,817,1647,1621,870,922,2342,3704,29122,29074,29091,29162,29131,1458,1270,2816,1441,2017,2562,1151,1107,953,922,1546,1709,29192,29184,2147483647,64703,30,510,13118,62689,7470,5696,0,3,3,2
rest in pinky,18:06:24.820,29100,7457,3383,1749,1054,1494,799,1621,1590,905,936,2333,3687,29179,29122,29188,29175,29118,1463,1322,2790,1423,2012,2535,1120,1133,993,909,1542,1731,29126,29109,2147483647,64709,28,498,13114,62698,7470,5709,0,3,3,2
rest in pinky,18:06:24.920,29135,7501,3322,1744,1050,1489,812,1639,1617,887,927,2329,3766,29122,29034,29157,29285,29166,1423,1305,2825,1397,2061,2540,1129,1125,953,909,1551,1757,29166,29206,2147483647,64695,33,504,13119,62699,7468,5703,0,3,3,2
rest in pinky,18:06:24.945,29087,7475,3326,1744,1037,1480,795,1621,1595,905,958,2333,3695,29153,29192,29245,29241,29201,1450,1265,2786,1379,2030,2592,1138,1103,953,900,1564,1718,29061,29144,2147483647,64713,24,509,13120,62696,7465,5701,0,3,3,2
pinky to fist,18:06:25.130,29157,7492,3357,1770,1072,1511,852,1647,1617,883,953,2315,3708,29148,29192,29232,29206,29228,1463,1274,2799,1401,2056,2522,1138,1072,944,870,1538,1722,29083,29157,2147483647,64714,23,505,13122,62688,7459,5701,0,3,3,2
pinky to fist,18:06:25.220,29250,7479,3379,1779,1081,1472,804,1590,1612,914,914,2381,3691,29104,28990,29245,29236,29012,1445,1278,2812,1410,2021,2526,1151,1142,944,922,1560,1696,29100,29170,2147483647,64707,40,526,13120,62692,7459,5707,0,3,3,2
pinky to fist,18:06:25.320,29113,7523,3370,1740,1045,1489,830,1647,1608,887,966,2346,3700,29236,29201,29267,29258,29219,1423,1291,2808,1406,2039,2553,1103,1129,953,927,1533,1691,29104,29118,2147483647,64703,31,497,13120,62698,7457,5714,0,3,3,2
pinky to fist,18:06:25.419,29118,7488,3344,1691,1081,1494,812,1608,1617,852,927,2329,3730,29188,29170,29258,29206,29280,1454,1287,2803,1406,2074,2522,1133,1160,927,900,1577,1691,29162,29113,2147483647,64711,27,518,13120,62694,7459,5710,0,3,3,2
pinky to fist,18:06:25.442,29131,7466,3383,1766,1019,1476,817,1608,1586,914,958,2333,3717,29236,29267,29206,29263,29228,1454,1300,2799,1410,1977,2566,1111,1146,962,927,1542,1683,29061,29140,2147483647,64711,30,508,13122,62681,7456,5702,0,3,3,2
pinky to fist,18:06:25.619,29170,7444,3405,1744,1063,1498,786,1625,1617,896,949,2333,3722,29192,29197,29236,29219,29201,1419,1296,2816,1384,2061,2535,1155,1103,953,892,1560,1718,29052,29157,2147483647,64713,29,510,13121,62673,7452,5705,0,3,3,2
pinky to fist,18:06:25.719,29118,7470,3331,1749,1085,1494,804,1634,1577,870,962,2337,3704,29201,29214,29254,29258,29206,1445,1243,2838,1406,2017,2544,1094,1103,966,914,1529,1709,29069,29131,2147483647,64706,35,516,13122,62675,7451,5705,0,3,3,2
pinky to fist,18:06:25.819,29188,7483,3361,1722,1059,1507,782,1608,1560,914,874,2342,3739,29206,29148,29210,29245,29166,1445,1287,2750,1344,2025,2562,1138,1076,922,918,1502,1722,29012,29118,2147483647,64702,27,506,13119,62672,7456,5702,0,3,3,2
pinky to fist,18:06:25.845,29078,7444,3331,1779,1094,1524,826,1608,1608,887,940,2311,3722,29201,29267,29298,29271,29245,1472,1287,2803,1419,2030,2531,1142,1129,958,887,1577,1705,29118,29100,2147483647,64707,18,518,13119,62663,7460,5694,0,3,3,2
pinky to fist,18:06:26.019,29188,7470,3370,1718,1116,1489,817,1647,1564,887,962,2364,3748,29061,29157,29232,29219,29025,1428,1291,2821,1419,2003,2575,1103,1125,971,909,1582,1766,29100,29166,2147483647,64708,25,517,13124,62660,7447,5698,0,3,3,2
pinky to fist,18:06:26.119,29175,7439,3313,1749,1081,1502,812,1621,1625,861,953,2307,3704,29219,29197,29214,29197,29219,1472,1300,2816,1401,2061,2557,1111,1173,962,909,1555,1709,29074,29175,2147483647,64705,25,507,13126,62656,7437,5704,0,3,3,2
pinky to fist,18:06:26.219,29153,7457,3383,1718,1072,1502,782,1630,1586,870,993,2342,3735,29184,29192,29258,29241,29219,1450,1322,2772,1397,2003,2540,1116,1142,997,927,1560,1678,29056,29175,2147483647,64710,30,500,13126,62658,7440,5702,0,3,3,2
pinky to fist,18:06:26.319,29157,7448,3392,1749,1085,1533,786,1630,1625,878,966,2364,3708,29232,29206,29223,29293,29241,1437,1283,2860,1379,2003,2531,1138,1120,944,909,1573,1696,29113,29166,2147483647,64710,24,514,13126,62661,7442,5700,0,3,3,2
pinky to fist,18:06:26.419,29144,7439,3273,1740,1028,1507,826,1630,1617,914,914,2337,3704,29201,29210,29219,29201,29175,1445,1278,2821,1415,2025,2540,1081,1111,936,940,1538,1665,29065,29188,2147483647,64709,18,511,13127,62661,7441,5698,0,3,3,2
pinky to fist,18:06:26.444,29087,7444,3260,1740,1050,1485,795,1652,1595,914,944,2324,3695,29223,29184,29223,29219,29201,1450,1283,2816,1410,2034,2522,1138,1129,971,909,1555,1700,29043,29100,2147483647,64710,19,508,13128,62662,7440,5698,0,3,3,2
pinky to fist,18:06:26.544,29166,7453,3370,1744,1059,1498,821,1643,1604,900,896,2320,3730,29175,29179,29228,29206,29188,1454,1283,2790,1379,2025,2535,1120,1142,944,958,1533,1727,29052,29131,2147483647,64713,27,513,13131,62662,7434,5700,0,3,3,2
pinky to fist,18:06:26.719,29144,7435,3291,1718,1072,1507,843,1630,1564,883,927,2346,3761,29175,29219,29250,29236,29192,1419,1305,2790,1432,2025,2548,1120,1138,953,909,1538,1718,29008,29148,2147483647,64710,37,517,13130,62672,7435,5705,0,3,3,2
pinky to fist,18:06:26.819,29148,7426,3313,1744,1045,1494,830,1617,1590,870,931,2307,3730,29236,29236,29192,29245,29192,1450,1256,2772,1437,2043,2522,1085,1164,949,918,1542,1749,29065,29122,2147483647,64713,28,517,13129,62677,7439,5706,0,3,3,2
pinky to fist,18:06:26.919,29096,7413,3295,1722,1059,1538,773,1617,1538,874,958,2373,3713,29223,29184,29206,29219,29184,1406,1313,2772,1419,2039,2504,1133,1138,962,940,1590,1727,29021,29113,2147483647,64708,25,507,13129,62677,7440,5705,0,3,3,2
pinky to fist,18:06:27.019,29118,7448,3251,1713,1125,1542,821,1665,1604,922,922,2368,3752,29170,29192,29206,29206,29236,1393,1287,2733,1393,2087,2553,1111,1120,979,940,1555,1744,29096,29148,2147483647,64713,24,515,13127,62678,7445,5703,0,3,3,2
pinky to fist,18:06:27.119,29104,7448,3304,1753,1094,1520,808,1595,1595,887,936,2386,3691,29206,29179,29162,29201,29153,1437,1313,2755,1362,2043,2504,1129,1146,971,914,1573,1705,29034,29175,2147483647,64710,27,510,13126,62675,7441,5709,0,3,3,2
pinky to fist,18:06:27.219,29148,7448,3313,1718,1063,1524,786,1621,1568,931,936,2346,3700,29206,29166,29170,29162,29118,1419,1296,2799,1384,2065,2548,1125,1173,944,949,1542,1740,29074,29135,2147483647,64708,21,509,13116,62669,7443,5726,0,3,3,2
pinky to fist,18:06:27.319,29179,7453,3309,1766,1054,1538,821,1634,1586,887,914,2395,3713,29197,29201,29175,29188,29206,1415,1300,2821,1393,2052,2478,1151,1133,966,931,1542,1727,29083,29122,2147483647,64708,33,514,13111,62673,7442,5741,0,3,3,2
pinky to fist,18:06:27.419,29162,7435,3383,1713,1067,1546,817,1621,1621,878,953,2359,3713,29214,29188,29188,29135,29228,1454,1270,2799,1445,2074,2531,1151,1120,944,914,1546,1744,29096,29153,2147483647,64701,27,515,13106,62674,7442,5754,0,3,3,2
pinky to fist,18:06:27.444,29166,7444,3331,1727,1067,1538,795,1634,1573,852,927,2342,3687,29170,29157,29184,29148,29219,1406,1300,2768,1406,2069,2500,1160,1133,971,927,1555,1735,29069,29144,2147483647,64705,25,509,13096,62675,7452,5764,0,3,3,2
pinky to fist,18:06:27.619,29148,7483,3260,1749,1015,1542,817,1639,1568,905,958,2368,3700,29223,29223,29214,29214,29206,1450,1248,2847,1410,2069,2540,1164,1116,971,931,1555,1731,29135,29135,2147483647,64714,37,512,13091,62664,7454,5767,0,3,3,2
pinky to fist,18:06:27.719,29135,7439,3326,1762,1059,1546,791,1590,1568,848,927,2359,3713,29214,29210,29184,29241,29184,1423,1287,2781,1410,2065,2522,1164,1133,953,944,1551,1705,29096,29096,2147483647,64710,34,513,13082,62659,7451,5788,0,3,3,2
pinky to fist,18:06:27.740,29135,7466,3304,1727,1059,1520,782,1608,1564,883,914,2364,3691,29192,29219,29223,29241,29250,1441,1265,2825,1393,2052,2487,1111,1177,936,900,1538,1749,29144,29140,2147483647,64703,31,507,13077,62658,7453,5796,0,3,3,2
pinky to fist,18:06:27.840,29148,7475,3370,1709,1050,1573,812,1630,1586,909,962,2381,3730,29228,29170,29192,29206,29228,1458,1291,2812,1384,2034,2513,1138,1120,979,949,1546,1744,29083,29122,2147483647,64708,34,513,13077,62654,7451,5798,0,3,3,2
pinky to fist,18:06:27.944,29074,7448,3256,1727,1067,1516,826,1625,1564,909,962,2364,3687,29219,29241,29210,29254,29188,1441,1283,2777,1401,2074,2509,1116,1155,922,936,1516,1700,29118,29144,2147483647,64705,22,507,13078,62645,7449,5794,0,3,3,2
pinky to fist,18:06:28.043,29034,7466,3388,1700,1059,1516,804,1665,1586,883,940,2390,3678,29179,29232,29201,29175,29184,1441,1291,2838,1397,2039,2553,1107,1146,922,944,1560,1713,29126,28981,2147483647,64713,29,505,13080,62643,7447,5790,0,3,3,2
pinky to fist,18:06:28.141,29148,7483,3322,1779,1120,1524,804,1595,1564,878,927,2381,3717,29175,29219,29166,29188,29184,1415,1270,2856,1384,2074,2592,1146,1142,984,922,1520,1727,29056,29148,2147483647,64706,34,519,13083,62647,7441,5793,0,3,3,2
pinky to fist,18:06:28.241,29140,7501,3322,1700,1045,1538,821,1634,1564,865,892,2386,3700,29175,29157,29188,29153,29192,1410,1265,2812,1371,2056,2588,1138,1120,949,900,1542,1713,29109,29118,2147483647,64709,25,505,13082,62646,7438,5797,0,3,3,2
pinky to fist,18:06:28.344,29144,7492,3331,1735,1059,1502,821,1647,1577,887,922,2359,3726,29245,29179,29206,29184,29162,1450,1270,2825,1450,2069,2522,1125,1094,914,958,1551,1722,29025,29184,2147483647,64714,34,514,13092,62643,7431,5784,0,3,3,2
pinky to fist,18:06:28.519,29096,7497,3383,1779,1054,1542,786,1582,1560,861,953,2373,3695,29210,29162,29109,29135,29126,1467,1278,2843,1388,2069,2540,1089,1120,936,922,1542,1678,28990,29157,2147483647,64711,19,505,13093,62640,7431,5780,0,3,3,2
pinky to fist,18:06:28.545,29131,7461,3295,1696,1054,1538,852,1617,1551,887,949,2408,3735,29245,29175,29228,29175,29184,1458,1252,2838,1415,2056,2526,1133,1098,940,914,1542,1696,29087,29157,2147483647,64709,25,513,13096,62645,7429,5778,0,3,3,2
pinky to fist,18:06:28.719,29144,7483,3348,1735,1054,1542,764,1595,1538,874,962,2368,3687,29078,29056,29104,29096,29096,1445,1300,2834,1415,2003,2509,1138,1116,975,940,1516,1749,29144,29162,2147483647,64707,28,511,13099,62646,7424,5778,0,3,3,2
pinky to fist,18:06:28.819,29083,7492,3326,1718,1089,1516,804,1573,1551,905,949,2329,3656,29201,29135,29236,29228,29065,1485,1305,2812,1432,2056,2562,1146,1103,971,927,1538,1731,29100,29087,2147483647,64706,23,510,13098,62646,7425,5778,0,3,3,2
pinky to fist,18:06:28.919,29122,7514,3366,1749,1072,1551,821,1582,1529,896,949,2359,3682,29201,29162,29162,29144,29135,1397,1318,2825,1379,2012,2575,1120,1063,988,931,1538,1691,29170,29135,2147483647,64706,22,513,13100,62648,7421,5779,0,3,3,2
pinky to fist,18:06:29.019,29109,7475,3353,1722,1067,1538,817,1604,1529,870,914,2359,3704,29214,29122,29206,29201,29157,1467,1344,2843,1410,2043,2513,1107,1111,958,949,1568,1691,29087,29135,2147483647,64703,29,510,13100,62650,7422,5782,0,3,3,2
pinky to fist,18:06:29.119,29126,7501,3388,1713,1059,1520,826,1564,1555,865,958,2377,3726,29148,29135,29192,29206,29148,1454,1287,2887,1423,2043,2592,1111,1138,958,931,1568,1700,29144,29140,2147483647,64709,31,513,13098,62645,7423,5780,0,3,3,2
pinky to fist,18:06:29.230,29135,7532,3357,1762,1045,1533,812,1590,1533,848,953,2395,3722,29214,29166,29197,29179,29206,1445,1291,2843,1397,2065,2544,1098,1133,971,931,1546,1700,29052,29148,2147483647,64710,25,512,13092,62638,7433,5777,0,3,3,2
pinky to fist,18:06:29.329,29258,7554,3405,1696,1010,1546,782,1617,1538,892,914,2355,3704,29043,29061,29052,29056,29091,1437,1322,2834,1401,2017,2548,1125,1111,966,944,1560,1700,29131,29228,2147483647,64708,20,512,13093,62639,7433,5777,0,3,3,2
pinky to fist,18:06:29.429,29206,7519,3379,1713,1072,1577,799,1546,1472,878,953,2377,3656,29091,29104,29025,29003,29109,1441,1296,2856,1415,2030,2562,1138,1120,958,892,1564,1722,29144,29210,2147483647,64704,25,508,13092,62636,7434,5778,0,3,3,2
pinky to fist,18:06:29.452,29245,7479,3344,1744,1072,1551,821,1564,1551,896,953,2416,3730,29096,29131,29162,29126,29104,1494,1296,2847,1379,1968,2548,1111,1103,927,914,1599,1735,29135,29254,2147483647,64713,21,501,13086,62623,7438,5778,0,3,3,2
pinky to fist,18:06:29.619,29091,7492,3392,1749,1054,1564,830,1621,1485,900,936,2377,3708,29250,29197,29148,29113,29197,1432,1278,2794,1384,2030,2557,1111,1142,962,870,1555,1700,28981,29148,2147483647,64703,21,509,13081,62614,7452,5768,0,3,3,2
pinky to fist,18:06:29.719,29148,7523,3366,1744,993,1568,799,1590,1494,896,931,2342,3810,29166,29201,29148,29148,29170,1454,1309,2856,1415,2061,2544,1125,1160,971,922,1542,1674,29083,29166,2147483647,64704,20,515,13072,62605,7466,5764,0,3,3,2
pinky to fist,18:06:29.819,29126,7505,3344,1696,1085,1529,826,1599,1498,892,944,2351,3695,29192,29153,29166,29135,29166,1423,1291,2816,1393,2021,2583,1138,1063,962,940,1546,1722,29065,29100,2147483647,64699,19,502,13065,62598,7476,5764,0,3,3,2
pinky to fist,18:06:29.919,29179,7497,3361,1713,1081,1560,848,1586,1520,856,909,2381,3726,29219,29206,29210,29201,29223,1419,1318,2865,1362,2065,2592,1129,1142,927,940,1546,1621,29087,29175,2147483647,64706,26,499,13061,62589,7476,5769,0,3,3,2
pinky to fist,18:06:29.942,29131,7527,3361,1749,1081,1546,830,1551,1507,887,931,2390,3687,29228,29197,29210,29197,29188,1463,1300,2852,1401,2056,2575,1125,1098,966,905,1546,1718,29162,29153,2147483647,64710,17,503,13058,62582,7476,5772,0,3,3,2
rest in fist,18:06:30.040,29166,7510,3405,1770,1098,1533,795,1564,1516,852,944,2377,3726,29197,29223,29236,29214,29214,1445,1327,2830,1366,2039,2575,1120,1138,922,909,1555,1718,29135,29184,2147483647,64699,20,506,13057,62580,7468,5782,0,3,3,2
rest in fist,18:06:30.150,29166,7497,3366,1727,1063,1520,826,1516,1498,874,944,2373,3704,29100,29122,29118,29126,29131,1450,1274,2887,1401,2039,2583,1081,1089,944,892,1560,1700,29087,29210,2147483647,64701,22,504,13054,62569,7464,5789,0,3,3,2
rest in fist,18:06:30.242,29087,7488,3357,1705,1081,1551,786,1551,1502,909,953,2346,3748,29197,29184,29175,29148,29210,1428,1283,2874,1406,2025,2548,1129,1125,922,940,1560,1669,29061,29184,2147483647,64712,16,516,13049,62553,7460,5798,0,3,3,2
rest in fist,18:06:30.343,29083,7514,3353,1762,1045,1551,839,1560,1520,892,949,2381,3695,29206,29219,29131,29201,29254,1393,1327,2816,1406,2047,2562,1116,1129,949,909,1538,1718,29078,29087,2147483647,64713,20,525,13041,62539,7464,5803,0,3,3,2
rest in fist,18:06:30.519,29065,7554,3370,1762,1054,1551,821,1529,1489,896,940,2342,3739,29197,29175,29250,29184,29184,1437,1287,2816,1410,2030,2566,1120,1089,922,949,1555,1700,29118,29131,2147483647,64704,17,513,13048,62542,7448,5809,0,3,3,2
rest in fist,18:06:30.619,29065,7580,3383,1722,1125,1546,804,1546,1502,834,927,2377,3704,29192,29184,29148,29223,29210,1432,1300,2900,1406,2008,2579,1116,1098,993,927,1516,1700,29144,29096,2147483647,64711,15,504,13053,62549,7436,5818,0,3,3,2
rest in fist,18:06:30.650,29276,7549,3440,1731,1076,1555,791,1538,1502,852,940,2408,3704,29170,29144,28933,28916,29135,1458,1287,2878,1410,2021,2575,1146,1103,958,927,1542,1727,29166,29258,2147483647,64718,22,508,13056,62548,7430,5816,0,3,3,2
rest in fist,18:06:30.819,29144,7558,3370,1696,1050,1551,852,1555,1502,852,944,2399,3704,29126,29140,29008,29157,29122,1458,1265,2874,1419,2021,2641,1072,1129,944,940,1551,1700,29126,29131,2147483647,64709,19,530,13070,62557,7408,5818,0,3,3,2
rest in fist,18:06:30.840,29118,7514,3366,1735,1059,1582,782,1511,1480,883,936,2416,3704,29232,29201,29170,29192,29223,1472,1261,2878,1437,2043,2570,1111,1094,940,896,1546,1665,29100,29091,2147483647,64714,16,507,13075,62574,7398,5829,0,3,3,2
rest in fist,18:06:31.019,29074,7571,3423,1713,1037,1546,830,1551,1476,900,944,2333,3739,29197,29192,29131,29144,29206,1437,1309,2834,1432,2061,2614,1103,1116,931,905,1551,1700,29109,29104,2147483647,64707,24,507,13082,62601,7403,5820,0,3,3,2
rest in fist,18:06:31.042,29047,7624,3396,1722,1081,1555,786,1533,1502,892,971,2324,3704,29245,29210,29184,29135,29250,1454,1300,2843,1406,1999,2566,1094,1138,940,892,1551,1700,29034,29118,2147483647,64722,21,517,13084,62610,7424,5795,0,3,3,2
rest in fist,18:06:31.143,29109,7536,3480,1740,1063,1595,839,1498,1489,909,949,2368,3752,29170,29135,29166,29184,29153,1485,1322,2843,1441,2030,2601,1125,1125,944,936,1524,1678,29083,29083,2147483647,64712,39,517,13086,62613,7431,5782,0,3,3,2
rest in fist,18:06:31.319,29030,7562,3467,1718,1081,1538,782,1533,1415,874,958,2324,3717,29267,29192,29214,29250,29245,1450,1287,2874,1397,2056,2562,1103,1125,958,979,1533,1713,29109,29056,2147483647,64702,35,514,13087,62628,7437,5778,0,3,3,2
rest in fist,18:06:31.420,29087,7628,3471,1749,1094,1546,812,1520,1494,909,931,2386,3708,29166,29236,29170,29153,29206,1472,1239,2882,1410,2012,2548,1085,1120,1006,927,1520,1652,29069,29144,2147483647,64718,19,524,13099,62652,7430,5774,0,3,3,2
rest in fist,18:06:31.519,29109,7589,3432,1753,1076,1560,799,1498,1472,874,953,2355,3607,29250,29223,29131,29170,29175,1520,1327,2856,1397,1995,2562,1133,1107,953,931,1582,1735,29157,29104,2147483647,64716,38,509,13108,62662,7424,5765,0,3,3,2
rest in fist,18:06:31.629,29113,7580,3436,1718,1054,1586,812,1511,1516,892,887,2381,3691,29192,29219,29197,29162,29236,1441,1287,2878,1419,2017,2557,1098,1138,984,905,1564,1718,29126,29113,2147483647,64712,34,519,13120,62666,7409,5760,0,3,3,2
rest in fist,18:06:31.719,29140,7514,3410,1713,1125,1604,812,1511,1502,887,927,2373,3660,29206,29096,29153,29148,29135,1450,1313,2887,1366,1973,2575,1116,1116,914,931,1529,1744,29140,29214,2147483647,64716,25,517,13125,62665,7400,5758,0,3,3,2
rest in fist,18:06:31.820,29074,7554,3462,1709,1085,1577,791,1511,1476,927,958,2346,3647,29210,29258,29214,29241,29175,1472,1287,2922,1410,2008,2544,1120,1116,962,918,1560,1740,29104,29104,2147483647,64707,23,510,13128,62652,7388,5761,0,3,3,2
rest in fist,18:06:31.845,29140,7510,3449,1696,1085,1546,795,1502,1476,861,927,2337,3669,29241,29210,29166,29201,29214,1432,1327,2891,1419,1999,2557,1089,1151,958,936,1555,1691,29091,29074,2147483647,64713,22,519,13135,62618,7359,5764,0,3,3,2
rest in fist,18:06:31.942,29118,7589,3366,1718,1067,1577,799,1511,1494,856,931,2381,3691,29223,29245,29210,29170,29206,1458,1283,2852,1401,2012,2535,1103,1098,971,896,1542,1722,29179,29109,2147483647,64722,21,506,13128,62591,7357,5770,0,3,3,2
rest in fist,18:06:32.044,29083,7532,3401,1700,1089,1538,812,1511,1450,896,936,2298,3717,29206,29192,29170,29179,29250,1432,1305,2843,1397,1977,2522,1089,1098,984,940,1582,1735,29100,29087,2147483647,64709,21,522,13104,62579,7403,5761,0,3,3,2
rest in fist,18:06:32.220,29126,7549,3423,1705,1076,1546,817,1498,1450,861,944,2395,3700,29223,29254,29192,29201,29219,1472,1300,2865,1388,2003,2562,1098,1125,971,909,1577,1669,29091,29126,2147483647,64707,22,509,13092,62585,7423,5764,0,3,3,2
rest in fist,18:06:32.319,29065,7549,3410,1727,1059,1542,830,1494,1458,865,940,2355,3678,29223,29214,29206,29206,29197,1463,1305,2856,1375,1959,2557,1081,1089,975,918,1546,1718,28981,29109,2147483647,64710,19,515,13088,62585,7429,5766,0,3,3,2
rest in fist,18:06:32.419,29122,7589,3440,1700,1072,1560,848,1498,1463,887,962,2368,3691,29236,29170,29241,29223,29201,1467,1283,2856,1445,2039,2526,1116,1111,962,909,1577,1718,29113,29118,2147483647,64713,27,500,13091,62586,7422,5768,0,3,3,2
rest in fist,18:06:32.520,29096,7598,3449,1713,1050,1529,804,1538,1480,874,944,2355,3665,29232,29162,29214,29184,29197,1463,1291,2860,1366,1995,2540,1120,1072,979,922,1546,1678,29100,29087,2147483647,64708,19,512,13088,62584,7427,5767,0,3,3,2
rest in fist,18:06:32.547,29122,7554,3410,1731,1107,1538,791,1489,1480,918,940,2351,3665,29280,29192,29223,29267,29236,1489,1335,2874,1419,2008,2562,1098,1129,966,900,1511,1687,29131,29100,2147483647,64704,19,502,13093,62590,7422,5766,0,3,3,2
rest in fist,18:06:32.719,29012,7527,3423,1700,1041,1502,755,1511,1485,865,918,2342,3730,29201,29144,29192,29166,29188,1467,1252,2843,1397,1986,2557,1133,1032,931,949,1546,1700,29030,29083,2147483647,64707,17,511,13091,62590,7428,5762,0,3,3,2
rest in fist,18:06:32.819,29131,7593,3401,1766,1037,1577,799,1520,1467,865,940,2333,3695,29258,29179,29192,29219,29201,1476,1270,2834,1384,2021,2544,1107,1116,931,922,1551,1705,29096,29157,2147483647,64710,19,505,13086,62581,7434,5763,0,3,3,2
rest in fist,18:06:32.920,29135,7497,3414,1731,1076,1533,808,1520,1450,852,918,2346,3717,29223,29206,29197,29157,29179,1467,1278,2856,1388,2017,2540,1142,1111,927,909,1529,1727,29078,29140,2147483647,64713,25,509,13082,62573,7431,5770,0,3,3,2
rest in fist,18:06:32.944,29135,7554,3392,1735,1059,1538,791,1480,1458,870,940,2359,3656,29293,29214,29192,29206,29206,1476,1305,2852,1406,1995,2509,1089,1081,971,887,1573,1674,29166,29166,2147483647,64706,15,502,13078,62578,7429,5784,0,3,3,2
rest in fist,18:06:33.119,29118,7576,3414,1753,1089,1546,826,1520,1437,878,927,2337,3708,29241,29148,29192,29210,29162,1472,1291,2816,1419,2017,2544,1098,1111,931,931,1582,1678,29096,29148,2147483647,64705,16,509,13079,62580,7429,5783,0,3,3,2
rest in fist,18:06:33.145,29144,7492,3432,1770,1067,1568,812,1463,1485,848,944,2368,3665,29254,29197,29179,29197,29219,1480,1243,2847,1406,2025,2562,1142,1107,958,905,1511,1661,29162,29153,2147483647,64699,19,512,13073,62570,7434,5785,0,3,3,2
rest in fist,18:06:33.320,29104,7584,3423,1705,1050,1533,777,1502,1494,874,914,2377,3643,29228,29175,29197,29157,29245,1476,1287,2825,1353,2043,2535,1125,1142,931,900,1529,1687,29109,29087,2147483647,64719,20,507,13071,62559,7438,5778,0,3,3,2
rest in fist,18:06:33.347,29069,7541,3432,1727,1085,1555,812,1516,1454,909,962,2373,3660,29263,29192,29241,29192,29228,1445,1274,2869,1406,2003,2544,1072,1120,993,922,1520,1722,29153,29118,2147483647,64714,23,503,13071,62552,7437,5777,0,3,3,2
rest in fist,18:06:33.519,29179,7549,3445,1762,1081,1524,782,1467,1476,874,962,2373,3660,29258,29069,29153,29188,29104,1494,1300,2812,1406,1990,2553,1107,1111,953,914,1533,1731,29104,29188,2147483647,64702,19,515,13065,62556,7440,5789,0,3,3,2
rest in fist,18:06:33.619,29100,7514,3370,1722,1067,1542,769,1502,1511,874,905,2395,3687,29250,29175,29232,29192,29214,1467,1300,2812,1379,2034,2566,1081,1103,949,905,1560,1700,29131,29109,2147483647,64705,14,515,13066,62557,7439,5789,0,3,3,2
rest in fist,18:06:33.720,29122,7554,3410,1687,1111,1560,817,1546,1489,909,953,2346,3695,29267,29219,29236,29192,29219,1467,1305,2834,1415,1995,2570,1129,1098,940,927,1551,1727,29135,29179,2147483647,64711,24,507,13065,62555,7440,5787,0,3,3,2
rest in fist,18:06:33.819,29118,7571,3432,1709,1059,1538,799,1489,1485,852,874,2333,3678,29232,29245,29210,29228,29201,1494,1331,2834,1401,2012,2566,1133,1116,971,892,1542,1731,29091,29162,2147483647,64715,17,502,13067,62542,7435,5783,0,3,3,2
rest in fist,18:06:33.843,29126,7549,3388,1757,1059,1577,747,1498,1445,865,944,2333,3695,29223,29197,29192,29232,29206,1467,1296,2799,1441,1968,2513,1067,1107,927,927,1533,1700,29096,29166,2147483647,64715,16,504,13074,62547,7424,5786,0,3,3,2
rest in fist,18:06:34.020,29091,7571,3405,1727,1081,1564,817,1564,1463,892,979,2337,3678,29271,29258,29228,29179,29192,1458,1265,2816,1397,2030,2491,1103,1111,931,887,1533,1683,29232,29113,2147483647,64696,16,511,13075,62566,7421,5796,0,3,3,2
rest in fist,18:06:34.119,29078,7580,3388,1753,1067,1511,834,1529,1463,878,988,2337,3669,29228,29245,29157,29170,29184,1476,1291,2895,1415,1981,2522,1094,1133,975,905,1590,1705,29276,29135,2147483647,64708,18,509,13083,62581,7413,5794,0,3,3,2
rest in fist,18:06:34.219,29140,7584,3410,1731,1085,1577,826,1520,1480,887,953,2355,3687,29250,29210,29219,29192,29206,1476,1296,2812,1410,2003,2478,1133,1081,949,896,1551,1661,29170,29148,2147483647,64709,20,518,13089,62586,7407,5792,0,3,3,2
rest in fist,18:06:34.243,29140,7554,3445,1757,1089,1520,799,1533,1458,914,922,2342,3687,29219,29219,29184,29162,29228,1454,1331,2838,1375,2065,2562,1125,1120,984,874,1542,1731,29214,29113,2147483647,64708,19,511,13090,62585,7405,5792,0,3,3,2
rest in fist,18:06:34.420,29166,7562,3410,1735,1072,1538,795,1502,1494,887,931,2359,3687,29197,29210,29192,29179,29214,1467,1300,2843,1401,1977,2522,1138,1085,962,927,1560,1705,29192,29153,2147483647,64716,12,516,13091,62585,7403,5793,0,3,3,2
rest in fist,18:06:34.444,29184,7580,3388,1731,1067,1573,821,1502,1445,887,944,2329,3678,29175,29201,29162,29100,29232,1480,1309,2821,1393,2043,2553,1120,1098,918,887,1542,1709,29192,29118,2147483647,64708,20,516,13094,62589,7397,5793,0,3,3,2
rest in fist,18:06:34.619,29043,7554,3401,1718,1054,1538,760,1520,1458,883,944,2307,3695,29214,29206,29166,29197,29166,1467,1287,2834,1419,1981,2540,1138,1037,979,927,1533,1665,29192,29056,2147483647,64707,22,513,13098,62588,7386,5798,0,3,3,2
rest in fist,18:06:34.719,29157,7532,3392,1718,1067,1538,817,1524,1485,883,931,2337,3660,29210,29210,29131,29197,29271,1476,1291,2821,1357,1999,2522,1125,1107,931,927,1560,1718,29197,29144,2147483647,64715,14,518,13102,62594,7384,5797,0,3,3,2
rest in fist,18:06:34.742,29166,7580,3423,1731,1094,1564,812,1538,1480,861,927,2315,3678,29140,29210,29140,29126,29206,1458,1296,2852,1349,2017,2540,1098,1151,979,936,1555,1696,29219,29153,2147483647,64711,17,515,13105,62599,7380,5796,0,3,3,2
rest in fist,18:06:34.843,29170,7541,3388,1740,1028,1516,786,1507,1472,878,949,2355,3695,29175,29197,29197,29144,29241,1445,1300,2843,1397,2012,2522,1133,1116,918,861,1507,1683,29179,29087,2147483647,64707,21,517,13109,62602,7373,5798,0,3,3,2
fist to pinky,18:06:34.942,29100,7549,3405,1744,1081,1538,830,1551,1467,861,922,2329,3660,29179,29188,29144,29131,29188,1445,1300,2838,1428,2025,2548,1103,1081,962,918,1577,1718,29197,29144,2147483647,64712,20,519,13110,62603,7371,5798,0,3,3,2
fist to pinky,18:06:35.130,29131,7554,3353,1766,1098,1568,799,1546,1454,883,944,2333,3687,29210,29228,29210,29210,29254,1428,1296,2838,1388,2008,2553,1081,1089,962,887,1555,1705,29188,29126,2147483647,64713,18,523,13112,62606,7370,5798,0,3,3,2
fist to pinky,18:06:35.152,29219,7505,3410,1757,1072,1516,812,1538,1498,834,918,2324,3669,29206,29118,29104,29144,29096,1445,1296,2838,1401,1964,2531,1138,1133,936,931,1546,1709,29250,29162,2147483647,64711,18,513,13111,62606,7374,5796,0,3,3,2
fist to pinky,18:06:35.243,29170,7580,3388,1731,1067,1538,817,1568,1507,887,909,2320,3691,29197,29179,29232,29236,29184,1463,1287,2799,1428,1977,2531,1129,1085,962,927,1533,1683,29250,29214,2147483647,64711,18,531,13113,62607,7372,5793,0,3,3,2
fist to pinky,18:06:35.342,29096,7571,3414,1744,1116,1538,812,1529,1498,878,953,2355,3665,29135,29179,29219,29188,29170,1485,1309,2834,1401,2047,2557,1120,1085,984,900,1573,1713,29078,29069,2147483647,64713,15,514,13107,62600,7382,5791,0,3,3,2
fist to pinky,18:06:35.520,29153,7620,3476,1740,1067,1516,782,1538,1494,883,922,2315,3669,29201,29091,29118,29153,29052,1480,1287,2821,1428,2012,2540,1133,1103,940,905,1538,1735,29162,29131,2147483647,64712,21,522,13101,62598,7394,5788,0,3,3,2
fist to pinky,18:06:35.629,29131,7567,3440,1744,1133,1546,799,1560,1485,870,953,2289,3678,29021,29184,29170,29241,29170,1467,1287,2786,1388,2008,2544,1098,1103,953,927,1560,1705,29131,29153,2147483647,64712,19,518,13096,62604,7400,5795,0,3,3,2
fist to pinky,18:06:35.719,29188,7541,3467,1727,1094,1529,804,1568,1498,852,975,2315,3673,29201,29140,29118,29140,29118,1480,1270,2830,1406,2003,2526,1120,1094,958,931,1524,1687,29131,29232,2147483647,64707,25,526,13090,62609,7418,5786,0,3,3,2
fist to pinky,18:06:35.829,29162,7637,3414,1735,1067,1555,839,1590,1498,896,962,2346,3590,29065,29228,29228,29170,29232,1485,1274,2834,1375,2074,2588,1098,1125,944,922,1564,1691,29192,29126,2147483647,64708,23,520,13088,62608,7423,5785,0,3,3,2
fist to pinky,18:06:35.853,29236,7549,3445,1683,1120,1551,804,1608,1511,856,949,2329,3634,29236,29135,29148,29118,29065,1467,1291,2825,1393,2017,2562,1120,1107,949,905,1560,1713,29153,29201,2147483647,64707,26,510,13088,62611,7425,5783,0,3,3,2
fist to pinky,18:06:35.943,29122,7611,3418,1713,1085,1577,821,1608,1476,896,944,2329,3634,29113,29210,29188,29140,29241,1415,1274,2821,1384,2025,2544,1107,1125,997,909,1529,1744,29157,29122,2147483647,64704,13,514,13088,62612,7430,5779,0,3,3,2
fist to pinky,18:06:36.043,29091,7567,3410,1727,1041,1582,830,1586,1546,870,918,2293,3629,29113,29228,29201,29175,29223,1467,1278,2816,1406,2047,2540,1085,1133,984,861,1533,1722,29188,29069,2147483647,64715,8,514,13085,62603,7432,5778,0,3,3,2
fist to pinky,18:06:36.220,29109,7567,3458,1727,1094,1604,834,1542,1467,896,984,2293,3651,29008,29192,29126,29153,29197,1498,1305,2825,1393,2056,2557,1129,1111,979,914,1551,1722,29144,29126,2147483647,64705,31,499,13078,62575,7431,5779,0,3,3,2
fist to pinky,18:06:36.320,29091,7571,3454,1740,1037,1599,830,1573,1511,878,953,2333,3673,28981,29175,29201,29170,29157,1502,1265,2838,1419,2047,2553,1116,1120,975,914,1538,1731,29157,29104,2147483647,64718,19,512,13077,62558,7417,5792,0,3,3,2
fist to pinky,18:06:36.419,29135,7523,3432,1740,1076,1586,804,1564,1476,861,918,2324,3669,29157,29228,29192,29148,29214,1450,1296,2834,1388,2030,2548,1146,1146,958,909,1560,1744,29140,29113,2147483647,64723,16,511,13086,62550,7393,5799,0,3,3,2
fist to pinky,18:06:36.519,29113,7479,3370,1753,1067,1538,795,1599,1533,856,958,2364,3647,29148,29201,29206,29258,29236,1454,1274,2816,1384,1986,2535,1125,1120,940,914,1551,1700,29148,29118,2147483647,64715,19,511,13089,62533,7379,5802,0,3,3,2
fist to pinky,18:06:36.620,29122,7505,3410,1687,1059,1590,764,1625,1507,900,927,2320,3616,29109,29170,29184,29175,29206,1458,1283,2860,1406,1981,2531,1103,1094,966,940,1568,1718,29232,29144,2147483647,64717,19,511,13088,62528,7380,5799,0,3,3,2
fist to pinky,18:06:36.719,29223,7527,3375,1678,1094,1560,795,1555,1472,909,936,2311,3647,29148,29166,28990,29118,29184,1437,1221,2830,1379,1959,2522,1107,1129,944,914,1546,1709,29144,29201,2147483647,64704,12,521,13091,62529,7371,5802,0,3,3,2
fist to pinky,18:06:36.819,29091,7549,3410,1731,1098,1568,826,1604,1476,856,922,2324,3651,29065,29157,29232,29219,29188,1480,1296,2834,1375,1999,2544,1129,1120,922,865,1551,1700,29170,29113,2147483647,64701,20,519,13097,62539,7369,5798,0,3,3,2
fist to pinky,18:06:36.919,29157,7519,3396,1753,1111,1577,808,1612,1516,896,962,2289,3691,29021,29100,29228,29206,29188,1472,1313,2830,1410,2039,2535,1094,1129,962,918,1533,1753,29148,29126,2147483647,64712,19,509,13100,62545,7370,5793,0,3,3,2
fist to pinky,18:06:37.030,29170,7514,3357,1757,1054,1577,830,1625,1524,887,966,2324,3629,28999,29188,29201,29228,29197,1472,1287,2816,1357,1973,2531,1098,1098,944,953,1524,1753,29206,29135,2147483647,64710,18,521,13102,62542,7369,5789,0,3,3,2
fist to pinky,18:06:37.119,29135,7567,3427,1705,1094,1555,830,1617,1507,900,936,2311,3673,29192,29135,29074,29113,29122,1467,1309,2887,1476,1955,2535,1098,1129,975,958,1551,1713,29131,29144,2147483647,64709,17,513,13103,62541,7359,5799,0,3,3,2
fist to pinky,18:06:37.219,29148,7549,3370,1740,1089,1564,804,1639,1533,852,936,2320,3638,29188,29214,29170,29166,29201,1485,1265,2874,1388,1973,2553,1111,1129,993,900,1538,1727,29232,29122,2147483647,64712,20,517,13106,62545,7353,5802,0,3,3,2
fist to pinky,18:06:37.320,29100,7514,3366,1705,1098,1560,843,1643,1546,865,984,2333,3665,29100,29232,29232,29210,29175,1472,1296,2869,1445,2008,2566,1146,1146,922,958,1577,1731,29153,29100,2147483647,64712,20,514,13109,62552,7351,5800,0,3,3,2
fist to pinky,18:06:37.344,29109,7567,3392,1691,1076,1516,812,1608,1516,896,949,2307,3669,29100,29210,29192,29219,29210,1467,1283,2900,1388,2012,2531,1116,1129,940,909,1524,1731,29135,29118,2147483647,64710,23,512,13109,62560,7361,5794,0,3,3,2
fist to pinky,18:06:37.445,29140,7545,3418,1757,1076,1551,839,1656,1555,887,949,2377,3717,29069,29250,29236,29214,29258,1485,1252,2865,1415,2008,2575,1142,1089,993,927,1546,1740,29144,29126,2147483647,64710,21,513,13108,62560,7363,5792,0,3,3,2
fist to pinky,18:06:37.544,29126,7562,3396,1731,1076,1542,812,1639,1507,865,949,2329,3704,29179,29254,29179,29210,29245,1458,1305,2869,1384,2017,2544,1164,1151,979,918,1551,1749,29219,29157,2147483647,64718,17,526,13105,62562,7366,5796,0,3,3,2
fist to pinky,18:06:37.646,29126,7492,3392,1722,1072,1551,791,1652,1564,883,936,2333,3665,28990,29219,29197,29219,29192,1489,1270,2843,1401,1990,2487,1125,1120,962,949,1560,1722,29109,29148,2147483647,64715,19,518,13102,62563,7366,5803,0,3,3,2
fist to pinky,18:06:37.820,29170,7545,3414,1740,1098,1555,834,1639,1577,870,931,2333,3700,29148,29232,29214,29192,29258,1498,1265,2838,1393,2003,2518,1142,1142,971,909,1573,1792,29170,29135,2147483647,64708,23,510,13097,62561,7376,5800,0,3,3,2
fist to pinky,18:06:37.919,29109,7510,3414,1727,1041,1529,821,1705,1586,887,953,2359,3665,29109,29206,29188,29175,29250,1463,1270,2808,1393,1977,2465,1173,1151,1001,922,1564,1744,29153,29061,2147483647,64719,19,516,13093,62563,7389,5793,0,3,3,2
fist to pinky,18:06:38.030,29118,7510,3401,1700,1085,1533,834,1634,1529,905,949,2346,3717,29148,29254,29175,29241,29214,1502,1278,2847,1428,2025,2544,1125,1133,966,905,1538,1718,29157,29113,2147483647,64713,18,519,13089,62558,7396,5791,0,3,3,2
fist to pinky,18:06:38.120,29135,7567,3445,1753,1081,1542,812,1647,1542,883,936,2333,3656,29206,29170,29131,29104,29131,1489,1305,2834,1397,2012,2513,1177,1142,971,914,1529,1744,29131,29157,2147483647,64711,20,504,13086,62558,7399,5795,0,3,3,2
fist to pinky,18:06:38.219,29126,7545,3392,1753,1063,1533,834,1647,1542,909,971,2342,3735,29140,29250,29188,29175,29298,1476,1256,2830,1401,2012,2540,1146,1151,984,883,1560,1727,29148,29131,2147483647,64706,23,503,13081,62553,7406,5796,0,3,3,2
fist to pinky,18:06:38.319,29122,7514,3374,1727,1067,1542,812,1634,1573,856,940,2329,3678,29012,29188,29166,29210,29197,1511,1252,2834,1423,1977,2540,1125,1120,940,927,1511,1735,29091,29113,2147483647,64703,22,505,13074,62542,7409,5801,0,3,3,2
fist to pinky,18:06:38.343,29083,7536,3375,1722,1054,1533,812,1647,1555,861,958,2373,3682,29109,29232,29201,29219,29232,1454,1291,2860,1432,1986,2566,1138,1125,988,927,1551,1678,29166,29140,2147483647,64708,13,513,13067,62532,7414,5806,0,3,3,2
fist to pinky,18:06:38.530,29131,7536,3379,1696,1085,1529,834,1683,1546,905,931,2359,3673,29096,29228,29144,29175,29210,1467,1283,2834,1384,1955,2513,1133,1146,971,927,1551,1735,29153,29100,2147483647,64707,25,504,13057,62529,7429,5808,0,3,3,2
fist to pinky,18:06:38.556,29135,7527,3374,1731,1059,1542,812,1674,1582,856,953,2399,3691,29210,29126,29140,29140,29131,1458,1265,2834,1371,2021,2544,1146,1146,949,914,1542,1757,29148,29131,2147483647,64706,23,510,13054,62522,7437,5804,0,3,3,2
fist to pinky,18:06:38.648,29148,7497,3388,1740,1085,1546,786,1621,1573,896,953,2329,3708,29065,29219,29214,29214,29302,1454,1313,2794,1410,1951,2491,1164,1138,993,931,1560,1810,29113,29162,2147483647,64722,19,524,13048,62514,7442,5804,0,3,3,2
fist to pinky,18:06:38.820,29157,7514,3375,1740,1067,1560,812,1608,1555,852,979,2368,3687,29201,29179,29100,29078,29219,1489,1300,2794,1419,1977,2535,1129,1103,953,940,1494,1713,29148,29166,2147483647,64721,30,507,13040,62506,7449,5809,0,3,3,2
fist to pinky,18:06:38.920,29223,7501,3383,1740,1072,1542,821,1625,1560,887,922,2386,3717,29267,29157,29012,29078,29162,1485,1274,2786,1371,2017,2570,1125,1138,984,905,1577,1753,29122,29228,2147483647,64702,20,503,13033,62499,7456,5811,0,3,3,2
fist to pinky,18:06:39.019,29122,7527,3414,1718,1133,1551,817,1643,1538,887,966,2333,3730,29135,29228,29197,29210,29280,1472,1256,2803,1423,1995,2557,1177,1142,931,905,1560,1735,29122,29157,2147483647,64705,20,503,13026,62487,7463,5812,0,3,3,2
fist to pinky,18:06:39.051,29197,7532,3414,1740,1081,1538,830,1665,1568,900,914,2368,3704,29201,29135,29043,29030,29126,1441,1274,2878,1406,1959,2544,1125,1107,958,887,1560,1731,29096,29179,2147483647,64696,16,490,13023,62479,7465,5810,0,3,3,2
fist to pinky,18:06:39.220,29179,7501,3410,1700,1076,1520,799,1625,1586,870,940,2351,3687,29008,29276,29197,29241,29236,1437,1252,2808,1384,2021,2526,1138,1094,966,909,1538,1749,29197,29153,2147483647,64694,21,485,13023,62475,7468,5807,0,3,3,2
fist to pinky,18:06:39.320,29188,7527,3388,1770,1111,1538,782,1669,1564,900,944,2381,3695,29210,29258,29206,29210,29192,1450,1331,2812,1437,1920,2526,1120,1120,940,922,1494,1700,29039,29184,2147483647,64710,20,485,13025,62491,7467,5809,0,3,3,2
fist to pinky,18:06:39.344,29126,7483,3410,1762,1076,1524,773,1665,1577,896,936,2355,3665,29126,29254,29170,29236,29263,1423,1270,2803,1397,1995,2531,1142,1146,936,905,1551,1696,29135,29113,2147483647,64700,13,515,13031,62498,7463,5804,0,3,3,2
fist to pinky,18:06:39.443,29162,7510,3405,1740,1103,1516,804,1683,1625,878,918,2377,3643,29135,29245,29206,29188,29250,1428,1248,2821,1410,1986,2509,1160,1085,958,949,1546,1749,29245,29179,2147483647,64699,21,497,13038,62490,7453,5797,0,3,3,2
fist to pinky,18:06:39.545,29175,7523,3366,1713,1094,1494,817,1630,1582,887,979,2368,3752,29113,29223,29179,29162,29210,1450,1270,2812,1401,1986,2531,1146,1120,966,927,1542,1727,29192,29223,2147483647,64706,23,507,13035,62487,7454,5801,0,3,3,2
fist to pinky,18:06:39.645,29201,7514,3357,1740,1081,1511,834,1630,1577,914,909,2333,3761,29131,29245,29223,29192,29197,1445,1265,2847,1401,1981,2535,1125,1129,944,927,1529,1709,29192,29188,2147483647,64708,18,511,13039,62492,7453,5797,0,3,3,2
fist to pinky,18:06:39.819,29104,7536,3370,1770,1059,1507,786,1656,1604,874,949,2351,3757,29131,29201,29228,29188,29245,1428,1252,2768,1423,1951,2509,1142,1146,966,927,1520,1705,29214,29166,2147483647,64695,18,496,13037,62491,7459,5795,0,3,3,2
fist to pinky,18:06:39.920,29210,7541,3410,1722,1098,1507,808,1687,1586,883,896,2364,3687,29131,29157,29223,29219,29188,1419,1265,2821,1384,1955,2562,1138,1111,922,900,1516,1753,29192,29223,2147483647,64722,11,515,13039,62492,7451,5797,0,3,3,2
fist to pinky,18:06:39.942,29197,7519,3374,1784,1089,1507,826,1639,1564,839,931,2403,3722,29118,29184,29166,29170,29184,1454,1252,2838,1384,2003,2592,1142,1146,958,865,1520,1696,29109,29153,2147483647,64709,16,506,13034,62483,7458,5798,0,3,3,2
rest in pinky,18:06:40.119,29157,7628,3414,1731,1072,1498,848,1604,1604,874,914,2359,3700,29126,29192,29170,29223,29166,1423,1300,2799,1393,2043,2579,1120,1072,958,905,1582,1744,29122,29170,2147483647,64707,20,489,13026,62480,7461,5814,0,3,3,2
rest in pinky,18:06:40.219,29140,7562,3445,1727,1085,1516,804,1625,1621,861,949,2368,3651,29122,29184,29214,29170,29219,1472,1322,2755,1375,2017,2575,1155,1098,962,949,1538,1753,29188,29144,2147483647,64695,21,494,13015,62481,7471,5821,0,3,3,2
rest in pinky,18:06:40.330,29197,7593,3445,1727,1081,1494,812,1656,1599,870,918,2373,3691,29135,29166,29241,29192,29223,1415,1248,2772,1371,1990,2570,1182,1138,1006,918,1502,1713,29096,29219,2147483647,64708,17,511,13011,62481,7478,5822,0,3,3,2
rest in pinky,18:06:40.430,29157,7541,3476,1709,1120,1502,830,1665,1577,887,944,2408,3739,29201,29184,29078,29069,29157,1467,1274,2830,1397,2047,2535,1177,1116,975,922,1524,1735,29162,29091,2147483647,64703,14,511,12998,62477,7499,5823,0,3,3,2
rest in pinky,18:06:40.519,29192,7562,3436,1705,1081,1542,830,1625,1586,896,962,2351,3700,29201,29175,29061,29131,29201,1463,1283,2843,1384,1999,2526,1151,1107,984,949,1573,1696,29197,29223,2147483647,64698,27,482,12993,62479,7501,5831,0,3,3,2
rest in pinky,18:06:40.619,29157,7554,3436,1691,1045,1494,826,1639,1621,817,870,2373,3726,29140,29157,29157,29188,29201,1419,1283,2838,1406,1986,2605,1125,1103,966,905,1560,1700,29126,29166,2147483647,64697,22,492,12990,62477,7507,5830,0,3,3,2
rest in pinky,18:06:40.720,29175,7470,3462,1713,1089,1520,786,1625,1604,870,936,2416,3717,29175,29175,29206,29179,29188,1454,1287,2772,1384,1995,2566,1125,1155,958,896,1560,1727,29184,29241,2147483647,64708,17,504,12989,62477,7508,5830,0,3,3,2
rest in pinky,18:06:40.820,29175,7545,3388,1731,1072,1467,804,1617,1595,861,966,2395,3713,29197,29157,29091,29069,29210,1441,1270,2808,1371,2074,2570,1155,1142,958,931,1542,1740,29069,29214,2147483647,64697,27,488,12986,62478,7509,5836,0,3,3,2
rest in pinky,18:06:40.843,29223,7501,3410,1713,1085,1516,804,1625,1630,870,900,2381,3700,29179,29214,29192,29223,29210,1401,1300,2838,1388,2008,2610,1151,1133,962,918,1560,1735,29140,29157,2147483647,64686,25,496,12985,62481,7509,5841,0,3,3,2
rest in pinky,18:06:40.946,29135,7554,3388,1762,1006,1524,799,1630,1564,883,962,2373,3726,29144,29236,29175,29192,29162,1467,1265,2834,1366,1995,2548,1125,1133,975,944,1568,1749,29170,29135,2147483647,64702,32,499,12979,62469,7517,5838,0,3,3,2
rest in pinky,18:06:41.043,29162,7501,3432,1700,1067,1476,817,1630,1599,909,958,2373,3726,29118,29065,29250,29241,29140,1458,1313,2830,1432,1981,2597,1142,1094,971,922,1560,1735,29166,29197,2147483647,64709,26,495,12972,62460,7522,5840,0,3,3,2
rest in pinky,18:06:41.143,29153,7466,3375,1709,1098,1538,817,1612,1560,843,966,2324,3687,29153,29021,29214,29223,29021,1423,1313,2794,1375,1973,2553,1160,1133,918,883,1533,1731,29184,29175,2147483647,64698,17,499,12966,62464,7515,5866,0,3,3,2
rest in pinky,18:06:41.329,29144,7514,3410,1762,1094,1489,799,1608,1599,909,922,2342,3708,29175,29034,29197,29197,29104,1450,1278,2821,1406,1968,2557,1177,1103,922,940,1546,1744,29166,29228,2147483647,64699,28,496,12970,62461,7503,5871,0,3,3,2
rest in pinky,18:06:41.420,29219,7562,3375,1722,1076,1524,791,1599,1573,878,922,2329,3730,29214,29170,29175,29157,29148,1428,1265,2812,1415,2012,2583,1142,1120,993,918,1538,1696,29140,29188,2147483647,64706,28,504,12970,62452,7497,5874,0,3,3,2
rest in pinky,18:06:41.520,29122,7488,3357,1713,1076,1476,817,1617,1555,865,909,2368,3665,29113,29034,29197,29276,29153,1472,1283,2808,1397,1990,2601,1142,1125,940,896,1551,1740,29157,29188,2147483647,64700,19,496,12963,62453,7504,5880,0,3,3,2
rest in pinky,18:06:41.619,29170,7492,3405,1735,1081,1520,799,1647,1604,905,958,2329,3682,29104,29083,29162,29188,29074,1437,1265,2781,1384,1995,2540,1164,1177,953,949,1546,1713,29241,29223,2147483647,64699,24,499,12959,62452,7510,5880,0,3,3,2
rest in pinky,18:06:41.719,29122,7501,3339,1731,1072,1494,791,1625,1608,856,953,2351,3717,29100,29056,29201,29241,29153,1428,1274,2772,1419,1990,2583,1125,1177,984,914,1560,1643,29241,29162,2147483647,64701,25,499,12952,62457,7517,5891,0,3,3,2
rest in pinky,18:06:41.820,29170,7510,3414,1696,1050,1494,782,1577,1599,843,927,2324,3673,29078,29078,29210,29228,29104,1410,1261,2759,1397,1973,2526,1146,1098,940,914,1542,1705,29179,29258,2147483647,64690,40,490,12949,62456,7517,5896,0,3,3,2
rest in pinky,18:06:41.849,29179,7461,3344,1718,1094,1498,821,1643,1560,856,936,2351,3687,29219,29201,29021,29083,29197,1419,1274,2790,1415,2043,2583,1142,1111,1001,931,1524,1696,29144,29201,2147483647,64706,30,500,12949,62456,7519,5895,0,3,3,2
rest in pinky,18:06:41.943,29210,7497,3326,1700,1076,1498,791,1608,1621,887,958,2377,3691,29126,28990,29179,29188,29008,1458,1296,2799,1410,1916,2557,1142,1103,953,909,1555,1691,29192,29170,2147483647,64700,26,499,12950,62462,7522,5891,0,3,3,2
rest in pinky,18:06:42.053,29148,7470,3353,1749,1089,1467,808,1669,1555,900,953,2320,3660,29197,29197,29170,29157,29210,1406,1291,2812,1344,2021,2597,1138,1120,962,905,1546,1713,29210,29184,2147483647,64693,19,494,12953,62478,7530,5884,0,3,3,2
rest in pinky,18:06:42.142,29184,7470,3335,1718,1081,1516,817,1634,1612,896,909,2359,3634,29109,29065,29267,29232,29021,1437,1305,2803,1362,2021,2544,1138,1133,940,922,1538,1691,29175,29197,2147483647,64702,28,505,12957,62482,7535,5869,0,3,3,2
rest in pinky,18:06:42.250,29219,7461,3313,1744,1076,1472,812,1621,1577,874,940,2359,3695,29250,29201,29030,29003,29170,1401,1305,2786,1410,1986,2553,1129,1103,958,905,1555,1762,29241,29210,2147483647,64718,28,497,12958,62476,7537,5861,0,3,3,2
rest in pinky,18:06:42.355,29201,7439,3304,1709,1041,1502,812,1634,1555,856,953,2311,3673,29175,29140,29188,29192,29184,1463,1287,2777,1379,2003,2570,1129,1129,949,905,1546,1691,29184,29192,2147483647,64702,37,492,12957,62475,7539,5862,0,3,3,2
rest in pinky,18:06:42.443,29153,7470,3335,1718,1094,1524,812,1643,1577,861,953,2315,3673,29126,29113,29170,29232,29144,1441,1265,2816,1388,1973,2562,1173,1111,940,865,1555,1740,29162,29210,2147483647,64694,31,485,12954,62488,7546,5864,0,3,3,2
rest in pinky,18:06:42.545,29162,7457,3304,1718,1094,1502,795,1643,1612,861,944,2329,3673,29091,29078,29307,29267,29074,1441,1265,2825,1375,1968,2579,1129,1107,949,922,1542,1744,29214,29197,2147483647,64691,34,500,12952,62491,7552,5862,0,3,3,2
rest in pinky,18:06:42.719,29148,7417,3313,1700,1045,1485,826,1612,1590,874,914,2355,3691,29122,29096,29245,29188,29087,1437,1296,2777,1379,1951,2557,1133,1129,940,927,1551,1709,29175,29197,2147483647,64710,38,493,12954,62493,7549,5863,0,3,3,2
rest in pinky,18:06:42.819,29250,7457,3339,1713,1037,1498,799,1643,1590,887,944,2355,3665,29122,29109,29254,29206,29052,1437,1287,2812,1401,1968,2553,1164,1133,975,936,1533,1709,29170,29197,2147483647,64701,35,494,12952,62498,7551,5869,0,3,3,2
rest in pinky,18:06:42.920,29210,7483,3295,1709,1072,1480,808,1599,1630,834,949,2280,3673,29126,29131,29201,29236,29118,1401,1248,2803,1419,1986,2531,1120,1125,958,909,1560,1683,29162,29126,2147483647,64706,36,489,12953,62501,7552,5867,0,3,3,2
rest in pinky,18:06:42.944,29214,7439,3278,1749,1063,1524,834,1634,1577,865,971,2307,3665,29039,29039,29245,29232,29074,1415,1252,2799,1362,1937,2540,1173,1072,971,944,1546,1700,29223,29109,2147483647,64706,30,500,12952,62507,7559,5862,0,3,3,2
rest in pinky,18:06:43.119,29135,7457,3348,1749,1089,1516,786,1643,1564,878,931,2289,3687,29223,29175,29122,29162,29157,1406,1274,2790,1397,2021,2513,1151,1103,953,918,1533,1713,29166,29131,2147483647,64690,30,494,12954,62510,7559,5861,0,3,3,2
rest in pinky,18:06:43.220,29175,7457,3331,1691,1045,1538,808,1595,1582,861,944,2285,3669,29091,29162,29228,29223,29109,1415,1278,2777,1410,1955,2553,1116,1063,944,900,1542,1691,29100,29192,2147483647,64697,31,511,12959,62507,7546,5863,0,3,3,2
rest in pinky,18:06:43.320,29192,7541,3388,1718,1067,1494,777,1590,1630,870,944,2298,3669,29113,29096,29162,29210,29113,1366,1287,2816,1406,1964,2557,1107,1120,949,896,1533,1744,29078,29188,2147483647,64698,27,503,12966,62499,7526,5869,0,3,3,2
rest in pinky,18:06:43.344,29157,7457,3361,1674,1067,1480,769,1617,1555,883,922,2337,3647,29122,29025,29254,29228,29025,1406,1248,2794,1401,1973,2522,1155,1098,940,944,1573,1705,29113,29197,2147483647,64703,33,503,12970,62496,7512,5878,0,3,3,2
rest in pinky,18:06:43.519,29140,7475,3339,1705,1059,1524,804,1630,1560,887,971,2285,3638,29122,29113,29201,29219,29166,1428,1248,2755,1410,1902,2544,1142,1111,949,914,1538,1696,29140,29166,2147483647,64703,28,501,12970,62496,7511,5878,0,3,3,2
rest in pinky,18:06:43.620,29166,7457,3339,1722,1072,1450,808,1625,1590,878,940,2285,3678,29131,29135,29271,29276,29083,1450,1256,2772,1379,1990,2509,1146,1116,953,905,1560,1705,29153,29162,2147483647,64703,28,502,12971,62497,7509,5879,0,3,3,2
rest in pinky,18:06:43.720,29166,7457,3335,1678,1045,1494,830,1661,1582,887,931,2298,3691,29083,29047,29201,29192,29025,1432,1278,2733,1397,1964,2531,1164,1129,958,953,1498,1709,29157,29192,2147483647,64701,28,500,12969,62486,7505,5885,0,3,3,2
rest in pinky,18:06:43.819,29210,7461,3326,1722,1067,1494,817,1608,1560,861,936,2307,3669,29091,29113,29232,29214,29061,1415,1248,2786,1375,1959,2535,1142,1138,944,905,1564,1700,29162,29148,2147483647,64704,27,495,12968,62477,7496,5892,0,3,3,2
rest in pinky,18:06:43.846,29201,7479,3335,1718,1045,1472,791,1656,1582,834,944,2329,3656,29096,29188,29236,29223,29175,1437,1239,2794,1384,1959,2509,1168,1151,922,874,1560,1713,29157,29144,2147483647,64703,18,497,12966,62471,7488,5903,0,3,3,2
rest in pinky,18:06:44.020,29131,7448,3374,1722,1085,1485,760,1608,1568,848,905,2302,3673,29206,29236,29241,29267,29170,1467,1305,2786,1375,1942,2544,1173,1146,944,900,1546,1696,28937,29170,2147483647,64704,16,508,12968,62473,7482,5908,0,3,3,2
rest in pinky,18:06:44.120,29157,7435,3335,1753,1116,1485,826,1599,1608,878,971,2307,3621,29091,29126,29214,29236,29131,1437,1283,2825,1454,1955,2535,1146,1111,931,887,1502,1669,29162,29148,2147483647,64700,27,500,12967,62478,7482,5913,0,3,3,2
rest in pinky,18:06:44.219,29122,7466,3335,1766,1041,1511,839,1617,1599,861,936,2307,3651,29100,29131,29236,29228,29157,1467,1270,2777,1401,1933,2562,1133,1107,958,905,1529,1735,29104,29188,2147483647,64702,25,502,12965,62470,7478,5918,0,3,3,2
rest in pinky,18:06:44.330,29179,7497,3335,1727,1037,1529,760,1608,1555,870,922,2285,3625,29091,29104,29223,29197,29122,1415,1265,2816,1384,1959,2548,1146,1103,958,892,1577,1709,29091,29210,2147483647,64697,23,499,12963,62468,7481,5917,0,3,3,2
rest in pinky,18:06:44.356,29188,7387,3317,1713,1045,1498,834,1625,1564,856,900,2276,3660,29201,29188,29157,29144,29219,1428,1305,2750,1393,2012,2562,1146,1072,966,900,1520,1709,29061,29175,2147483647,64691,26,496,12964,62468,7479,5918,0,3,3,2
rest in pinky,18:06:44.444,29228,7461,3326,1718,1076,1463,817,1604,1586,887,949,2285,3568,29061,29184,29188,29184,29184,1454,1256,2834,1393,1955,2504,1120,1133,953,918,1511,1700,29052,29192,2147483647,64696,24,500,12967,62463,7472,5916,0,3,3,2
rest in pinky,18:06:44.629,29144,7422,3353,1757,1067,1489,804,1630,1555,883,966,2307,3643,29148,29170,29153,29210,29122,1445,1300,2777,1406,1937,2575,1129,1103,936,874,1568,1727,29131,29135,2147483647,64701,22,499,12967,62463,7472,5916,0,3,3,2
rest in pinky,18:06:44.669,29166,7514,3309,1727,1045,1511,804,1621,1564,848,944,2368,3651,29184,29188,29179,29144,29232,1450,1278,2799,1423,1977,2522,1155,1116,927,922,1538,1713,29039,29184,2147483647,64694,28,495,12970,62464,7469,5916,0,3,3,2
rest in pinky,18:06:44.820,29210,7413,3322,1735,1076,1480,826,1630,1599,887,931,2337,3665,29131,29140,29179,29228,29144,1476,1226,2746,1388,1946,2526,1116,1116,940,861,1560,1705,29100,29153,2147483647,64708,10,509,12978,62447,7450,5913,0,3,3,2
rest in pinky,18:06:44.842,29210,7461,3326,1727,1098,1454,786,1582,1564,883,909,2324,3665,29113,29126,29179,29179,29135,1454,1265,2772,1393,1898,2535,1111,1116,975,918,1529,1722,29078,29170,2147483647,64690,31,503,12986,62453,7431,5922,0,3,3,2
rest in pinky,18:06:44.943,29166,7448,3331,1740,1072,1502,843,1634,1582,900,971,2289,3669,29074,29148,29210,29192,29113,1445,1305,2777,1384,1981,2513,1133,1107,927,887,1533,1669,29144,29166,2147483647,64694,23,494,12988,62459,7420,5935,0,3,3,2
pinky to fist,18:06:45.043,29210,7466,3348,1705,1037,1472,791,1674,1617,883,962,2307,3647,29135,29113,29170,29219,29166,1415,1261,2742,1366,1946,2518,1133,1111,940,896,1502,1722,29144,29188,2147483647,64698,17,496,12993,62465,7415,5933,0,3,3,2
pinky to fist,18:06:45.144,29210,7444,3313,1713,1085,1476,791,1612,1586,883,927,2285,3656,29148,29100,29179,29135,29131,1428,1283,2799,1366,1968,2557,1129,1098,949,900,1533,1735,29148,29245,2147483647,64712,16,511,12997,62474,7414,5930,0,3,3,2
pinky to fist,18:06:45.243,29206,7479,3291,1696,1094,1494,786,1661,1560,856,975,2307,3647,29069,29118,29008,29047,29153,1437,1291,2803,1379,1933,2540,1142,1085,940,900,1568,1718,29047,29192,2147483647,64706,19,510,13003,62478,7407,5928,0,3,3,2
pinky to fist,18:06:45.342,29179,7391,3322,1740,1072,1494,804,1608,1564,870,944,2289,3634,29061,29113,29096,29096,29184,1423,1261,2781,1384,1942,2518,1133,1129,971,922,1546,1700,29179,29175,2147483647,64714,21,511,13004,62472,7403,5927,0,3,3,2
pinky to fist,18:06:45.530,29210,7431,3344,1691,1098,1480,812,1586,1586,856,918,2355,3638,29113,29188,29043,29087,29144,1432,1248,2777,1384,1951,2518,1186,1107,962,922,1555,1700,29144,29184,2147483647,64706,21,508,13006,62459,7387,5936,0,3,3,2
pinky to fist,18:06:45.557,29206,7514,3322,1713,1081,1476,786,1612,1573,843,975,2298,3634,29219,29131,29175,29140,29140,1415,1256,2786,1375,2034,2566,1116,1111,931,918,1520,1683,29135,29241,2147483647,64708,20,512,13003,62450,7382,5945,0,3,3,2
pinky to fist,18:06:45.719,29166,7417,3317,1762,1081,1520,791,1604,1546,843,966,2373,3665,29135,29096,29012,28995,29096,1454,1265,2755,1371,1942,2509,1138,1103,927,914,1560,1700,29096,29219,2147483647,64708,18,513,12997,62457,7381,5963,0,3,3,2
pinky to fist,18:06:45.820,29184,7453,3353,1709,1059,1511,791,1639,1573,874,962,2333,3638,29140,29118,29166,29034,29096,1445,1278,2808,1401,1946,2509,1133,1173,927,927,1533,1696,29144,29192,2147483647,64702,21,506,12995,62450,7367,5980,0,3,3,2
pinky to fist,18:06:45.920,29201,7470,3317,1735,1028,1485,826,1630,1573,874,931,2351,3669,29144,29047,29113,29140,29113,1410,1309,2830,1362,1951,2535,1155,1133,958,922,1538,1691,29131,29206,2147483647,64703,23,509,12993,62433,7354,5992,0,3,3,2
pinky to fist,18:06:46.020,29184,7417,3331,1709,1063,1467,821,1604,1612,830,931,2359,3678,29096,29113,28990,29034,29131,1423,1265,2764,1406,1968,2509,1155,1103,944,914,1533,1696,29096,29184,2147483647,64709,22,510,12993,62419,7338,6004,0,3,3,2
pinky to fist,18:06:46.119,29223,7470,3348,1731,1085,1507,834,1639,1555,896,918,2333,3682,29096,29061,29179,29052,29096,1480,1239,2772,1388,1951,2518,1177,1111,931,909,1529,1683,29192,29223,2147483647,64706,22,518,12992,62417,7336,6008,0,3,3,2
pinky to fist,18:06:46.220,29219,7461,3331,1731,1094,1516,786,1683,1586,856,905,2267,3656,29144,29109,29052,29030,29087,1450,1265,2794,1349,1929,2531,1173,1146,936,914,1538,1722,29100,29245,2147483647,64712,16,507,12991,62419,7341,6005,0,3,3,2
pinky to fist,18:06:46.340,29245,7488,3348,1700,1059,1494,830,1625,1560,883,922,2342,3691,29109,29126,29052,29017,29144,1450,1270,2777,1375,1959,2478,1160,1142,931,905,1564,1700,29188,29320,2147483647,64706,14,512,12992,62424,7345,6000,0,3,3,2
pinky to fist,18:06:46.429,29135,7549,3405,1700,1085,1533,764,1625,1590,830,984,2368,3678,29144,29122,29135,29192,29074,1445,1270,2772,1384,1990,2509,1151,1142,940,931,1546,1713,29162,29197,2147483647,64711,24,514,12994,62421,7337,6005,0,3,3,2
pinky to fist,18:06:46.519,29280,7488,3454,1696,1076,1529,826,1604,1564,892,909,2351,3634,29232,29162,29254,29280,29210,1458,1252,2786,1419,1999,2482,1142,1076,927,900,1511,1674,29109,29267,2147483647,64714,21,515,12993,62421,7330,6015,0,3,3,2
pinky to fist,18:06:46.551,29245,7536,3445,1718,1116,1542,812,1621,1582,900,962,2337,3643,29096,29083,29104,29083,29083,1410,1283,2838,1445,2039,2540,1120,1081,944,905,1542,1709,29122,29232,2147483647,64715,25,517,12992,62417,7330,6014,0,3,3,2
pinky to fist,18:06:46.720,29192,7549,3418,1735,1085,1516,830,1612,1599,900,931,2355,3660,29140,29065,29122,29153,29104,1415,1278,2808,1371,1977,2535,1182,1133,940,909,1542,1731,29078,29188,2147483647,64715,16,510,12991,62417,7336,6010,0,3,3,2
pinky to fist,18:06:46.819,29201,7479,3405,1749,1067,1507,808,1634,1586,843,949,2346,3651,29065,29083,29017,29069,29091,1450,1296,2838,1393,2021,2513,1151,1125,971,936,1524,1722,29148,29223,2147483647,64707,16,512,12993,62422,7336,6008,0,3,3,2
pinky to fist,18:06:46.920,29228,7523,3357,1709,1063,1516,799,1568,1555,852,949,2364,3682,29175,29135,29056,29157,29100,1467,1305,2830,1401,1995,2491,1177,1116,931,931,1555,1687,29122,29192,2147483647,64716,18,509,12996,62422,7328,6011,0,3,3,2
pinky to fist,18:06:47.020,29188,7505,3357,1744,1081,1494,830,1595,1538,874,962,2315,3673,29078,29118,29061,29074,29096,1401,1278,2803,1401,2003,2500,1146,1120,966,865,1542,1718,29144,29254,2147483647,64712,22,503,12995,62414,7326,6012,0,3,3,2
pinky to fist,18:06:47.120,29170,7505,3383,1735,1072,1494,817,1608,1568,870,993,2311,3665,29140,29109,29078,29104,29113,1437,1270,2808,1384,1933,2518,1168,1142,927,914,1551,1691,29184,29157,2147483647,64710,12,510,12997,62413,7320,6015,0,3,3,2
pinky to fist,18:06:47.219,29206,7510,3392,1713,1063,1516,830,1599,1604,896,953,2324,3660,29069,29087,29052,29083,29065,1428,1318,2781,1415,1955,2478,1160,1116,936,878,1511,1700,29166,29188,2147483647,64705,17,517,12999,62413,7317,6014,0,3,3,2
pinky to fist,18:06:47.320,29170,7470,3388,1740,1103,1516,808,1643,1577,856,914,2364,3695,29091,29065,29104,29052,29140,1454,1270,2816,1375,1995,2478,1151,1111,966,900,1560,1705,29184,29188,2147483647,64708,12,511,13003,62415,7313,6011,0,3,3,2
pinky to fist,18:06:47.420,29184,7501,3366,1757,1059,1538,799,1621,1564,870,975,2307,3660,29162,29100,29188,29122,29109,1384,1265,2812,1366,1995,2504,1177,1138,944,887,1582,1683,29078,29148,2147483647,64709,14,508,13010,62414,7302,6009,0,3,3,2
pinky to fist,18:06:47.520,29210,7492,3379,1744,1081,1498,804,1590,1590,905,918,2381,3612,29135,29087,29078,29175,29162,1476,1256,2803,1415,2008,2504,1125,1103,958,905,1502,1661,29135,29144,2147483647,64709,15,522,13014,62410,7298,6002,0,3,3,2
pinky to fist,18:06:47.544,29179,7562,3344,1744,1111,1489,782,1608,1573,861,997,2329,3656,29148,29113,29043,29039,29078,1419,1248,2843,1415,2021,2557,1151,1116,940,918,1577,1727,29170,29210,2147483647,64712,9,517,13017,62412,7294,6003,0,3,3,2
pinky to fist,18:06:47.643,29184,7554,3379,1727,1072,1538,782,1634,1542,861,984,2364,3678,29113,29074,29012,29025,29091,1423,1283,2860,1388,1973,2526,1138,1133,931,870,1538,1727,29144,29184,2147483647,64711,15,522,13021,62418,7290,6003,0,3,3,2
pinky to fist,18:06:47.820,29179,7510,3370,1744,1076,1520,830,1630,1520,900,944,2320,3687,29157,29113,29170,29122,29144,1445,1313,2799,1423,1986,2518,1186,1120,953,896,1568,1705,29219,29206,2147483647,64713,16,526,13024,62418,7282,6006,0,3,3,2
pinky to fist,18:06:47.920,29157,7501,3366,1749,1125,1533,817,1630,1538,896,971,2355,3678,29214,29065,29192,29179,29061,1423,1278,2847,1366,2008,2531,1151,1120,962,870,1529,1731,29148,29267,2147483647,64719,14,513,13023,62411,7276,6011,0,3,3,2
pinky to fist,18:06:48.020,29201,7461,3375,1722,1045,1516,773,1595,1564,856,944,2320,3643,29192,29175,29162,29052,29126,1419,1261,2786,1401,1968,2522,1177,1146,918,927,1551,1757,29188,29210,2147483647,64720,9,522,13024,62410,7271,6014,0,3,3,2
pinky to fist,18:06:48.044,29201,7453,3344,1744,1085,1485,821,1630,1573,878,927,2324,3708,29135,29126,29043,29083,29126,1437,1278,2816,1388,1920,2482,1173,1116,975,927,1560,1709,29197,29184,2147483647,64716,12,521,13023,62405,7264,6022,0,3,3,2
pinky to fist,18:06:48.220,29162,7479,3335,1766,1037,1520,821,1564,1551,878,953,2359,3691,29210,29118,29192,29219,29126,1419,1278,2816,1375,1951,2504,1142,1120,979,940,1538,1700,29175,29219,2147483647,64714,16,526,13022,62397,7258,6028,0,3,3,2
pinky to fist,18:06:48.242,29144,7492,3348,1700,1037,1524,782,1582,1564,874,927,2315,3704,29179,29157,29148,29144,29162,1423,1274,2777,1401,1951,2522,1155,1120,936,909,1529,1718,29162,29184,2147483647,64717,8,523,13026,62398,7251,6027,0,3,3,2
pinky to fist,18:06:48.420,29206,7488,3388,1731,1085,1538,804,1560,1520,865,966,2298,3643,29179,29140,29153,29148,29104,1423,1283,2852,1393,1933,2513,1138,1081,949,896,1524,1678,29192,29250,2147483647,64712,12,523,13025,62397,7253,6027,0,3,3,2
pinky to fist,18:06:48.520,29162,7475,3418,1718,1050,1507,848,1582,1520,874,958,2368,3691,29210,29118,29096,29140,29104,1437,1278,2812,1410,1959,2522,1146,1129,966,892,1533,1731,29197,29214,2147483647,64708,8,521,13028,62399,7248,6028,0,3,3,2
pinky to fist,18:06:48.545,29223,7492,3370,1727,1041,1533,769,1617,1480,865,927,2333,3660,29144,29091,29206,29184,29131,1432,1278,2794,1353,1907,2500,1146,1129,940,892,1542,1691,29206,29184,2147483647,64716,7,525,13031,62400,7244,6027,0,3,3,2
pinky to fist,18:06:48.644,29148,7461,3357,1713,1063,1520,804,1599,1511,900,936,2333,3678,29140,29091,29175,29113,29074,1397,1252,2786,1388,1937,2522,1133,1120,993,878,1533,1665,29214,29201,2147483647,64714,9,521,13036,62403,7234,6029,0,3,3,2
pinky to fist,18:06:48.830,29135,7497,3344,1691,1019,1538,782,1625,1516,874,918,2329,3691,29254,29210,29228,29228,29192,1423,1261,2790,1419,1968,2509,1160,1094,971,878,1551,1705,29100,29131,2147483647,64713,6,525,13037,62401,7231,6029,0,3,3,2
pinky to fist,18:06:48.853,29052,7497,3375,1740,1098,1524,782,1604,1551,896,914,2289,3673,29219,29170,29232,29188,29179,1410,1248,2812,1393,1955,2469,1129,1063,958,852,1533,1687,29122,29056,2147483647,64714,8,526,13043,62406,7220,6032,0,3,3,2
pinky to fist,18:06:49.020,29162,7501,3379,1709,1067,1560,812,1617,1480,874,962,2315,3660,29179,29104,29157,29188,29122,1432,1309,2803,1423,1995,2518,1133,1107,922,914,1538,1678,29126,29179,2147483647,64719,9,518,13042,62398,7216,6036,0,3,3,2
pinky to fist,18:06:49.119,29219,7470,3375,1713,1050,1520,795,1604,1520,874,914,2333,3708,29144,29104,29157,29170,29083,1406,1261,2812,1366,1999,2487,1164,1103,931,900,1582,1709,29091,29214,2147483647,64716,5,531,13041,62396,7217,6036,0,3,3,2
pinky to fist,18:06:49.143,29166,7492,3357,1687,1067,1524,817,1582,1498,909,931,2307,3669,29122,29179,29210,29175,29144,1415,1243,2821,1415,1951,2504,1133,1072,936,931,1564,1718,29104,29166,2147483647,64719,5,520,13039,62393,7217,6036,0,3,3,2
pinky to fist,18:06:49.243,29201,7519,3374,1691,1045,1533,799,1617,1489,852,949,2302,3665,29166,29069,29157,29135,29087,1406,1243,2821,1428,1999,2518,1151,1138,962,944,1577,1718,29162,29162,2147483647,64717,7,522,13036,62388,7220,6038,0,3,3,2
pinky to fist,18:06:49.419,29017,7545,3436,1784,1067,1524,799,1573,1511,878,931,2355,3665,29206,29162,29232,29228,29232,1441,1278,2834,1393,1973,2526,1138,1103,953,909,1555,1678,29078,29118,2147483647,64723,4,529,13033,62376,7217,6044,0,3,3,2
pinky to fist,18:06:49.520,29034,7505,3414,1740,1050,1533,812,1604,1524,874,931,2307,3651,29250,29175,29100,29131,29232,1419,1265,2830,1415,1973,2482,1155,1094,966,918,1538,1696,29100,28999,2147483647,64718,4,523,13031,62369,7213,6047,0,3,3,2
pinky to fist,18:06:49.548,29166,7479,3375,1727,1072,1533,812,1617,1555,870,927,2329,3700,29192,29131,29100,29153,29140,1428,1270,2812,1406,1977,2535,1146,1116,962,914,1516,1691,29140,29184,2147483647,64718,5,520,13034,62371,7208,6049,0,3,3,2
pinky to fist,18:06:49.720,29175,7519,3335,1735,1059,1546,782,1612,1507,870,914,2342,3704,29162,29144,29096,29118,29135,1445,1243,2825,1401,1964,2513,1142,1089,949,896,1529,1678,29122,29144,2147483647,64706,8,538,13039,62378,7200,6049,0,3,3,2
pinky to fist,18:06:49.743,29197,7536,3392,1709,1037,1568,799,1621,1472,870,927,2351,3700,29192,29122,29135,29144,29148,1397,1265,2878,1388,1981,2562,1129,1116,914,900,1546,1696,29135,29166,2147483647,64715,5,525,13046,62383,7191,6049,0,3,3,2
pinky to fist,18:06:49.930,29254,7571,3366,1691,1059,1529,791,1608,1498,870,918,2342,3730,29214,29157,29170,29135,29100,1419,1322,2891,1384,1964,2575,1098,1120,922,914,1533,1691,29157,29184,2147483647,64733,0,528,13046,62389,7202,6037,0,3,3,2
