Scenario,Time,P0,P1,P2,P3,P4,P5,P6,P7,P8,P9,P10,P11,P12,P13,P14,P15,P16,P17,P18,P19,P20,P21,P22,P23,P24,P25,P26,P27,P28,P29,P30,P31,ECG,AX,AY,AZ,QW,QX,QY,QZ,CS,CA,CG,CM
paper,17:45:00.008,29219,7497,3304,1700,975,1524,826,1643,1661,865,892,2627,3594,29228,29131,29113,29100,29135,1445,1344,2641,1397,1986,2970,1116,1195,936,878,1520,1709,29087,29219,2147483647,64742,143,557,14386,1967,7539,64658,0,3,3,2
paper,17:45:00.109,29131,7519,3344,1718,1001,1507,839,1612,1665,870,927,2575,3590,29201,29065,29091,29144,29157,1445,1353,2641,1397,1990,2939,1146,1151,918,896,1538,1709,29232,29126,2147483647,64744,146,546,14388,1963,7536,64650,0,3,3,2
paper,17:45:00.209,29166,7483,3331,1735,966,1502,826,1661,1630,883,931,2531,3625,29175,29162,29091,29100,29153,1450,1296,2614,1419,1986,2988,1146,1103,914,878,1511,1722,29148,29135,2147483647,64745,145,548,14395,1963,7522,64655,0,3,3,2
paper,17:45:00.309,29206,7497,3339,1727,971,1511,799,1656,1639,900,922,2641,3634,29184,29065,29126,29126,29087,1406,1340,2663,1397,1959,2931,1146,1089,940,918,1538,1713,29104,29083,2147483647,64738,155,548,14408,1961,7500,64669,0,3,3,2
paper,17:45:00.408,29157,7532,3374,1718,1006,1520,830,1617,1661,887,931,2540,3616,29254,29157,29131,29144,29118,1450,1335,2641,1401,1973,2961,1199,1142,931,896,1564,1731,29140,29175,2147483647,64739,148,547,14413,1953,7492,64678,0,3,3,2
paper,17:45:00.509,29157,7431,3322,1709,979,1516,786,1621,1709,856,940,2570,3572,29214,29170,29083,29104,29170,1419,1296,2641,1401,1946,2917,1164,1125,936,830,1511,1674,29131,29140,2147483647,64745,152,547,14413,1941,7495,64672,0,3,3,2
paper,17:45:00.609,29131,7501,3370,1705,1010,1511,821,1608,1625,896,971,2597,3568,29197,29122,29096,29096,29148,1415,1274,2641,1379,1977,2917,1120,1120,975,874,1520,1665,29096,29166,2147483647,64744,146,553,14414,1924,7497,64667,0,3,3,2
paper,17:45:00.709,29157,7461,3348,1678,997,1498,830,1634,1656,905,940,2562,3590,29188,29135,29162,29109,29148,1401,1322,2614,1393,1929,2975,1120,1116,944,896,1546,1709,29210,29153,2147483647,64748,141,550,14414,1897,7504,64654,0,3,3,2
paper,17:45:00.733,29122,7514,3357,1735,988,1489,812,1621,1647,905,936,2562,3559,29250,29162,29144,29104,29214,1432,1335,2619,1428,1968,2926,1146,1142,958,900,1551,1683,29148,29109,2147483647,64746,137,550,14413,1875,7510,64646,0,3,3,2
paper,17:45:00.909,29096,7466,3353,1669,979,1524,817,1612,1661,892,909,2540,3599,29179,29122,29100,29109,29083,1432,1344,2680,1384,1898,2909,1138,1142,936,896,1511,1691,29170,29122,2147483647,64735,135,542,14408,1863,7522,64638,0,3,3,2
paper,17:45:01.009,29157,7519,3361,1687,979,1498,812,1625,1612,874,958,2588,3616,29197,29175,29109,29113,29219,1419,1305,2632,1393,1981,2917,1168,1129,936,927,1529,1727,29135,29179,2147483647,64739,136,543,14405,1853,7527,64626,0,3,3,2
paper,17:45:01.109,29148,7501,3353,1731,962,1502,777,1604,1643,839,909,2553,3581,29188,29179,29047,29078,29100,1467,1322,2658,1454,1968,2944,1120,1142,936,870,1555,1696,29184,29179,2147483647,64737,135,536,14405,1851,7528,64621,0,3,3,2
paper,17:45:01.209,29179,7497,3326,1709,988,1533,773,1617,1678,887,922,2562,3559,29214,29214,29083,29122,29210,1423,1296,2663,1428,1924,2900,1177,1129,922,887,1560,1722,29126,29232,2147483647,64747,131,547,14406,1845,7528,64624,0,3,3,2
paper,17:45:01.235,29144,7519,3339,1705,993,1476,812,1612,1665,883,914,2575,3568,29197,29153,29126,29078,29162,1419,1313,2627,1415,1955,2900,1103,1146,971,852,1538,1731,29065,29153,2147483647,64735,133,551,14405,1838,7533,64633,0,3,3,2
paper,17:45:01.419,29241,7470,3361,1705,949,1520,812,1625,1661,883,914,2544,3572,29175,29162,29091,29144,29179,1397,1296,2601,1401,1964,2913,1142,1125,953,896,1516,1656,29157,29232,2147483647,64735,135,543,14407,1824,7533,64640,0,3,3,2
paper,17:45:01.508,29153,7448,3344,1705,953,1542,769,1643,1590,848,971,2579,3625,29192,29188,29153,29153,29166,1423,1318,2654,1415,1986,2895,1125,1098,953,878,1546,1744,29008,29122,2147483647,64736,133,544,14406,1812,7539,64647,0,3,3,2
paper,17:45:01.609,29135,7461,3353,1705,966,1538,786,1656,1683,878,874,2544,3612,29214,29166,29113,29131,29170,1423,1274,2654,1388,1951,2869,1173,1125,962,874,1560,1687,29219,29179,2147483647,64736,129,547,14405,1812,7541,64648,0,3,3,2
paper,17:45:01.709,29170,7479,3322,1705,962,1516,834,1647,1595,834,953,2531,3577,29210,29258,29232,29197,29258,1423,1366,2610,1388,1959,2874,1129,1133,944,874,1511,1722,28937,29197,2147483647,64736,128,543,14404,1800,7545,64649,0,3,3,2
paper,17:45:01.732,29197,7461,3317,1713,944,1546,804,1625,1647,914,909,2583,3599,29192,29184,29052,29087,29166,1415,1327,2575,1419,1959,2860,1168,1116,975,874,1529,1691,29126,29192,2147483647,64744,125,542,14405,1780,7548,64640,0,3,3,2
paper,17:45:01.909,29157,7492,3396,1718,966,1520,821,1634,1647,865,927,2601,3599,29157,29184,29118,29140,29179,1410,1318,2592,1406,1959,2887,1111,1129,940,861,1560,1678,29166,29179,2147483647,64735,128,543,14403,1771,7554,64646,0,3,3,2
paper,17:45:02.009,29162,7404,3357,1696,993,1502,826,1634,1652,887,905,2548,3616,29214,29179,29113,29131,29206,1419,1296,2619,1419,1946,2834,1120,1142,962,900,1494,1687,29201,29179,2147483647,64731,121,543,14402,1759,7560,64661,0,3,3,2
paper,17:45:02.109,29197,7479,3353,1691,993,1502,843,1599,1665,887,940,2540,3599,29179,29153,29113,29091,29192,1397,1313,2649,1437,1937,2865,1160,1146,953,878,1546,1691,29157,29236,2147483647,64734,125,543,14401,1751,7564,64666,0,3,3,2
paper,17:45:02.209,29192,7479,3326,1731,975,1511,777,1643,1669,878,931,2562,3590,29219,29201,29162,29140,29192,1445,1331,2627,1428,1973,2869,1164,1133,949,870,1529,1674,29131,29153,2147483647,64738,130,535,14399,1743,7569,64656,0,3,3,2
paper,17:45:02.309,29219,7409,3344,1696,984,1511,839,1621,1669,878,940,2583,3621,29153,29166,29056,29078,29188,1437,1305,2592,1371,1977,2895,1168,1146,940,878,1564,1727,29201,29188,2147483647,64747,127,541,14396,1737,7576,64645,0,3,3,2
paper,17:45:02.409,29078,7439,3357,1709,993,1467,817,1612,1841,861,922,2575,3572,29118,29118,29109,29065,29140,1432,1322,2623,1397,1951,2869,1142,1129,953,848,1560,1718,29166,29140,2147483647,64741,121,548,14397,1737,7573,64645,0,3,3,2
paper,17:45:02.509,29192,7514,3309,1731,971,1511,808,1630,1669,883,927,2557,3656,29192,29214,29122,29083,29201,1437,1309,2649,1415,1951,2860,1168,1151,962,830,1502,1700,29157,29201,2147483647,64740,124,542,14401,1731,7567,64647,0,3,3,2
paper,17:45:02.610,29148,7466,3375,1722,944,1494,799,1617,1669,878,918,2566,3555,29241,29166,29153,29074,29188,1428,1313,2632,1441,1942,2869,1146,1160,979,887,1546,1661,29179,29148,2147483647,64736,119,545,14409,1708,7557,64645,0,3,3,2
paper,17:45:02.709,29245,7453,3313,1683,993,1520,812,1656,1643,883,909,2544,3594,29197,29144,29118,29126,29197,1401,1313,2623,1423,1964,2887,1168,1129,949,856,1529,1705,29219,29254,2147483647,64736,118,549,14414,1684,7551,64634,0,3,3,2
paper,17:45:02.809,29148,7461,3335,1705,988,1480,839,1621,1630,900,914,2570,3590,29162,29153,29065,29096,29219,1441,1305,2619,1393,1964,2852,1138,1125,918,900,1476,1696,29148,29122,2147483647,64734,123,544,14414,1673,7551,64611,0,3,3,2
paper,17:45:02.909,29232,7475,3370,1687,1010,1472,808,1621,1639,874,909,2566,3585,29206,29214,29083,29118,29184,1423,1296,2605,1397,1924,2874,1142,1103,975,843,1529,1652,29148,29135,2147483647,64742,103,545,14406,1670,7566,64609,0,3,3,2
paper,17:45:03.009,29157,7444,3383,1744,1015,1511,821,1647,1639,914,909,2588,3594,29179,29170,29096,29091,29170,1415,1305,2632,1397,1973,2852,1177,1116,940,892,1502,1691,29184,29170,2147483647,64737,110,545,14409,1658,7563,64611,0,3,3,2
paper,17:45:03.109,29197,7479,3313,1700,1037,1502,808,1634,1639,856,900,2557,3568,29148,29184,29083,29144,29192,1401,1278,2601,1401,1929,2852,1151,1085,936,874,1524,1709,29170,29184,2147483647,64736,106,543,14412,1643,7564,64634,0,3,3,2
paper,17:45:03.209,29113,7461,3366,1665,966,1498,804,1643,1656,892,971,2570,3594,29109,29228,29096,29153,29206,1441,1296,2623,1423,1955,2838,1111,1146,953,874,1546,1700,29179,29140,2147483647,64731,115,542,14423,1620,7549,64648,0,3,3,2
paper,17:45:03.309,29091,7492,3414,1709,984,1494,830,1661,1669,856,958,2575,3607,29192,29166,29043,29052,29166,1423,1274,2614,1463,1946,2852,1129,1085,944,909,1524,1700,29034,29091,2147483647,64729,115,539,14434,1597,7536,64674,0,3,3,2
paper,17:45:03.409,29153,7510,3366,1705,993,1516,799,1625,1665,874,944,2588,3563,29170,29197,29118,29153,29170,1463,1274,2610,1415,1951,2830,1138,1138,922,905,1533,1727,29157,29131,2147483647,64739,105,542,14432,1603,7541,64689,0,3,3,2
paper,17:45:03.509,29232,7479,3379,1735,984,1476,808,1599,1665,843,918,2592,3607,29126,29219,29104,29100,29214,1401,1305,2566,1397,1933,2874,1151,1125,931,887,1511,1696,29236,29223,2147483647,64741,109,545,14430,1612,7541,64674,0,3,3,2
paper,17:45:03.609,29179,7510,3383,1700,988,1485,830,1612,1687,870,931,2583,3616,29140,29162,29065,29104,29148,1432,1335,2592,1388,1990,2843,1138,1146,931,896,1564,1643,29232,29162,2147483647,64752,110,552,14436,1611,7526,64641,0,3,3,2
paper,17:45:03.709,29126,7532,3375,1709,1001,1485,821,1661,1634,856,918,2570,3550,29140,29201,29179,29131,29201,1432,1305,2601,1410,1924,2882,1107,1138,962,878,1520,1683,29254,29223,2147483647,64744,114,555,14443,1612,7511,64628,0,3,3,2
paper,17:45:03.809,29157,7527,3375,1691,997,1507,834,1617,1647,870,953,2566,3594,29210,29201,29083,29118,29206,1441,1313,2588,1366,2003,2838,1133,1142,914,883,1538,1713,29188,29197,2147483647,64741,118,552,14449,1619,7500,64647,0,3,3,2
paper,17:45:03.833,29140,7523,3357,1691,1001,1463,812,1625,1665,852,922,2557,3607,29148,29192,29096,29179,29188,1423,1313,2610,1450,1968,2825,1133,1116,940,874,1511,1687,29228,29188,2147483647,64730,116,550,14450,1636,7499,64681,0,3,3,2
paper,17:45:04.009,29109,7510,3317,1700,958,1485,861,1617,1643,914,909,2562,3577,29157,29166,29179,29153,29184,1397,1318,2575,1384,1876,2838,1129,1116,940,883,1502,1687,29153,29192,2147483647,64740,119,551,14446,1645,7507,64701,0,3,3,2
paper,17:45:04.109,29179,7519,3361,1731,997,1498,812,1617,1617,852,936,2548,3520,29135,29188,29034,29091,29135,1480,1318,2570,1401,1981,2834,1142,1125,922,900,1498,1678,29074,29166,2147483647,64743,122,551,14439,1647,7520,64704,0,3,3,2
paper,17:45:04.209,29206,7536,3344,1665,993,1498,834,1608,1652,861,874,2570,3524,29157,29162,29118,29157,29135,1432,1296,2557,1406,1924,2852,1103,1120,931,887,1511,1709,29056,29188,2147483647,64744,126,545,14434,1648,7528,64705,0,3,3,2
paper,17:45:04.319,29162,7492,3401,1696,984,1507,799,1608,1608,870,900,2557,3524,29214,29219,29179,29184,29201,1397,1256,2610,1432,1955,2799,1116,1146,896,861,1511,1705,29210,29148,2147483647,64738,118,547,14431,1646,7536,64708,0,3,3,2
paper,17:45:04.343,29078,7519,3383,1766,975,1520,773,1639,1393,870,949,2562,3594,29118,29175,29201,29166,29148,1445,1296,2597,1428,1929,2865,1133,1103,918,892,1524,1678,29122,29166,2147483647,64734,121,544,14428,1641,7544,64728,0,3,3,2
paper,17:45:04.509,29039,7545,3423,1718,971,1467,791,1634,1423,870,966,2553,3577,29043,29210,29210,29214,29241,1428,1309,2614,1415,1946,2878,1160,1129,962,843,1494,1687,29162,29100,2147483647,64737,124,546,14425,1626,7554,64737,0,3,3,2
paper,17:45:04.533,29170,7510,3396,1718,971,1507,817,1621,1647,852,909,2553,3585,29241,29175,29192,29179,29179,1423,1322,2601,1410,1924,2874,1133,1098,940,883,1542,1691,29118,29179,2147483647,64741,123,540,14423,1618,7560,64732,0,3,3,2
paper,17:45:04.709,29122,7541,3295,1727,958,1516,764,1625,1656,874,940,2579,3577,29197,29254,29214,29197,29188,1441,1322,2601,1393,1876,2834,1142,1116,936,883,1538,1678,29109,29184,2147483647,64737,120,536,14424,1614,7557,64721,0,3,3,2
paper,17:45:04.809,29175,7483,3374,1722,979,1494,799,1595,1652,826,918,2553,3555,29131,29184,29144,29188,29184,1423,1296,2570,1423,1955,2821,1155,1107,984,918,1546,1705,29126,29184,2147483647,64738,112,547,14423,1620,7556,64714,0,3,3,2
paper,17:45:04.909,29192,7475,3375,1709,1010,1507,755,1656,1604,870,922,2531,3594,29245,29219,29201,29219,29245,1397,1309,2570,1388,1920,2812,1129,1142,918,874,1538,1674,29083,29140,2147483647,64734,117,547,14424,1623,7555,64713,0,3,3,2
paper,17:45:05.009,29219,7505,3366,1709,931,1485,795,1617,1621,900,922,2570,3599,29210,29157,29214,29179,29179,1401,1296,2562,1419,1920,2781,1155,1129,944,892,1498,1678,29069,29219,2147483647,64742,116,552,14425,1620,7552,64710,0,3,3,2
go to fist,17:45:05.032,29157,7444,3370,1744,966,1494,808,1612,1656,874,892,2566,3625,29197,29184,29201,29192,29188,1401,1313,2553,1428,1933,2830,1164,1081,949,936,1524,1705,29039,29153,2147483647,64737,120,550,14425,1612,7554,64703,0,3,3,2
go to fist,17:45:05.210,29192,7492,3353,1700,962,1507,852,1608,1612,870,887,2570,3546,29162,29223,29184,29223,29170,1432,1278,2557,1432,1929,2821,1177,1125,944,914,1498,1678,29003,29219,2147483647,64743,116,545,14424,1612,7557,64704,0,3,3,2
go to fist,17:45:05.309,29153,7514,3375,1700,1028,1520,821,1599,1630,900,958,2614,3581,29157,29188,29157,29184,29162,1454,1305,2566,1410,1929,2808,1133,1125,958,892,1529,1700,29074,29188,2147483647,64741,114,540,14423,1616,7556,64702,0,3,3,2
go to fist,17:45:05.409,29175,7439,3405,1674,1001,1480,839,1604,1617,878,936,2583,3629,29192,29210,29157,29188,29228,1467,1278,2579,1397,1942,2834,1133,1111,914,874,1520,1678,29030,29153,2147483647,64742,115,544,14423,1621,7555,64699,0,3,3,2
go to fist,17:45:05.433,29104,7501,3375,1700,953,1507,795,1608,1665,848,861,2588,3590,29148,29166,29140,29144,29126,1428,1278,2610,1388,1929,2799,1164,1138,966,892,1538,1665,28951,29201,2147483647,64735,114,543,14424,1622,7553,64698,0,3,3,2
go to fist,17:45:05.609,29157,7431,3361,1691,971,1494,817,1612,1634,874,958,2544,3603,29188,29250,29192,29188,29232,1454,1313,2610,1419,1933,2834,1133,1120,984,874,1507,1678,28933,29170,2147483647,64742,114,546,14423,1623,7554,64698,0,3,3,2
go to fist,17:45:05.709,29140,7488,3331,1727,971,1485,795,1608,1647,878,914,2553,3599,29148,29166,29201,29162,29192,1393,1283,2597,1393,1858,2799,1125,1103,927,900,1524,1696,29003,29206,2147483647,64742,117,548,14422,1624,7556,64697,0,3,3,2
go to fist,17:45:05.809,29184,7492,3396,1749,1001,1502,839,1617,1599,892,944,2540,3590,29232,29192,29210,29201,29188,1410,1318,2562,1437,1959,2830,1107,1111,953,861,1511,1678,28981,29192,2147483647,64738,114,549,14422,1617,7557,64688,0,3,3,2
go to fist,17:45:05.835,29214,7453,3348,1718,1001,1472,821,1621,1639,843,931,2513,3581,29170,29162,29148,29153,29122,1401,1291,2623,1388,1916,2772,1138,1125,922,856,1507,1700,28916,29206,2147483647,64737,117,548,14422,1617,7556,64687,0,3,3,2
go to fist,17:45:06.009,29179,7444,3326,1718,971,1529,817,1568,1630,861,931,2522,3541,29232,29192,29153,29232,29179,1432,1322,2570,1406,1951,2821,1142,1107,944,883,1511,1665,29056,29214,2147483647,64737,114,549,14423,1617,7555,64687,0,3,3,2
go to fist,17:45:06.109,29232,7545,3353,1691,979,1502,848,1604,1639,834,944,2570,3594,29162,29166,29157,29166,29179,1415,1261,2610,1388,1889,2838,1098,1129,966,887,1533,1656,28964,29241,2147483647,64736,115,551,14421,1615,7559,64683,0,3,3,2
go to fist,17:45:06.209,29210,7554,3370,1683,997,1507,791,1630,1656,852,958,2592,3590,29206,29175,29228,29184,29192,1428,1270,2627,1393,1889,2759,1164,1142,918,861,1542,1674,29025,29232,2147483647,64745,112,554,14421,1615,7559,64683,0,3,3,2
go to fist,17:45:06.239,29166,7501,3374,1731,962,1494,764,1639,1415,892,962,2544,3625,29122,29184,29087,29131,29201,1450,1296,2614,1379,1937,2821,1138,1133,931,892,1494,1683,29179,29126,2147483647,64739,114,551,14421,1615,7559,64683,0,3,3,2
go to fist,17:45:06.419,29170,7519,3383,1709,979,1507,804,1634,1621,874,949,2601,3594,29192,29250,29192,29245,29206,1437,1283,2592,1406,1911,2812,1138,1107,944,878,1542,1665,29096,29210,2147483647,64741,114,550,14421,1615,7559,64683,0,3,3,2
go to fist,17:45:06.445,29153,7536,3370,1713,988,1467,795,1608,1463,887,914,2544,3585,29162,29179,29214,29254,29184,1441,1340,2614,1401,1946,2852,1164,1125,936,874,1533,1665,29184,29166,2147483647,64739,111,549,14420,1611,7562,64685,0,3,3,2
go to fist,17:45:06.609,29179,7479,3392,1674,988,1507,821,1599,1639,861,922,2575,3555,29219,29228,29223,29201,29192,1432,1318,2570,1428,1911,2808,1142,1107,958,865,1520,1665,29065,29254,2147483647,64737,107,550,14418,1607,7566,64687,0,3,3,2
go to fist,17:45:06.710,29285,7545,3405,1718,966,1472,782,1630,1669,852,918,2553,3585,29228,29184,29170,29214,29144,1428,1278,2579,1441,1920,2856,1177,1129,958,883,1529,1661,29043,29236,2147483647,64731,108,548,14413,1606,7577,64690,0,3,3,2
go to fist,17:45:06.809,29206,7492,3370,1727,979,1507,821,1621,1656,870,922,2557,3572,29210,29250,29157,29228,29162,1423,1274,2614,1437,1933,2852,1151,1089,914,874,1511,1683,29074,29210,2147483647,64741,108,546,14409,1592,7588,64692,0,3,3,2
go to fist,17:45:06.835,29241,7510,3370,1713,975,1498,808,1608,1612,852,958,2544,3563,29153,29157,29179,29184,29201,1428,1256,2526,1410,1929,2825,1129,1138,953,905,1546,1674,28946,29236,2147483647,64736,107,545,14404,1587,7597,64689,0,3,3,2
go to fist,17:45:06.931,29214,7470,3353,1696,962,1458,791,1621,1612,892,900,2535,3581,29179,29148,29201,29214,29166,1401,1305,2566,1428,1951,2816,1103,1089,944,909,1507,1656,29043,29214,2147483647,64736,106,544,14401,1583,7604,64692,0,3,3,2
go to fist,17:45:07.109,29157,7457,3348,1709,949,1494,826,1652,1735,905,922,2575,3607,29197,29179,29271,29241,29214,1388,1318,2614,1362,1907,2847,1125,1107,962,887,1516,1687,29113,29157,2147483647,64736,103,544,14398,1576,7612,64697,0,3,3,2
go to fist,17:45:07.209,29214,7470,3366,1691,997,1480,812,1630,1656,830,905,2575,3616,29170,29157,29210,29188,29144,1415,1274,2610,1410,1920,2821,1168,1103,918,874,1494,1674,28981,29219,2147483647,64736,105,548,14398,1573,7612,64699,0,3,3,2
go to fist,17:45:07.240,29245,7444,3353,1709,1010,1502,804,1617,1604,883,949,2557,3541,29214,29179,29228,29206,29197,1397,1300,2610,1362,1898,2803,1138,1116,914,900,1533,1665,29144,29254,2147483647,64734,106,548,14397,1565,7616,64696,0,3,3,2
go to fist,17:45:07.410,29228,7479,3348,1674,966,1502,865,1634,1625,896,909,2601,3577,29236,29179,29184,29162,29188,1384,1283,2544,1441,1911,2812,1120,1120,940,878,1542,1691,28986,29236,2147483647,64740,99,546,14395,1552,7622,64692,0,3,3,2
go to fist,17:45:07.509,29192,7417,3344,1713,975,1516,804,1621,1656,892,927,2526,3594,29197,29219,29214,29232,29131,1379,1291,2557,1384,1902,2764,1107,1103,944,900,1524,1669,28977,29228,2147483647,64736,103,540,14396,1550,7621,64693,0,3,3,2
go to fist,17:45:07.609,29236,7492,3418,1722,958,1516,804,1652,1604,848,914,2570,3599,29223,29219,29153,29210,29153,1371,1261,2562,1401,1907,2790,1160,1138,966,852,1516,1665,29087,29157,2147483647,64736,100,542,14399,1541,7617,64697,0,3,3,2
go to fist,17:45:07.634,29267,7532,3370,1696,1001,1485,817,1625,1625,852,949,2566,3559,29245,29236,29219,29201,29210,1437,1283,2592,1423,1924,2755,1173,1111,940,896,1498,1700,29144,29219,2147483647,64737,98,539,14401,1535,7614,64696,0,3,3,2
go to fist,17:45:07.733,29223,7466,3366,1713,997,1489,812,1652,1639,874,900,2601,3546,29192,29175,29179,29162,29157,1410,1270,2614,1415,1924,2878,1138,1133,949,874,1498,1674,29131,29188,2147483647,64736,100,539,14405,1518,7610,64697,0,3,3,2
go to fist,17:45:07.909,29197,7519,3396,1718,984,1494,791,1674,1656,856,900,2619,3572,29210,29157,29219,29219,29192,1388,1296,2592,1393,1916,2891,1146,1129,979,883,1533,1674,29166,29241,2147483647,64729,92,555,14409,1498,7607,64697,0,3,3,2
go to fist,17:45:07.933,29170,7519,3379,1709,1001,1520,777,1634,1665,878,914,2623,3629,29166,29206,29148,29170,29179,1441,1283,2623,1410,1955,2830,1155,1111,958,892,1520,1656,29083,29192,2147483647,64740,95,547,14410,1482,7608,64700,0,3,3,2
go to fist,17:45:08.109,29157,7541,3405,1731,1001,1511,804,1652,1669,887,927,2632,3594,29184,29157,29228,29214,29184,1437,1300,2627,1415,1946,2808,1160,1120,922,905,1529,1691,29175,29135,2147483647,64734,97,536,14411,1470,7610,64701,0,3,3,2
go to fist,17:45:08.210,29157,7580,3449,1700,944,1498,826,1604,1709,878,936,2680,3577,29175,29201,29192,29201,29170,1419,1283,2619,1397,1929,2821,1146,1133,979,931,1520,1683,29083,29157,2147483647,64734,95,552,14409,1465,7613,64700,0,3,3,2
go to fist,17:45:08.309,29170,7510,3423,1665,1001,1529,861,1599,1700,900,909,2693,3603,29197,29201,29210,29228,29206,1437,1296,2632,1388,1920,2808,1151,1125,944,900,1564,1630,29083,29192,2147483647,64731,92,543,14405,1464,7621,64704,0,3,3,2
go to fist,17:45:08.334,29175,7483,3423,1700,997,1516,795,1621,1740,865,927,2715,3612,29170,29144,29184,29175,29206,1437,1313,2610,1410,1942,2772,1146,1164,971,900,1516,1700,29104,29162,2147483647,64734,95,550,14405,1455,7624,64705,0,3,3,2
go to fist,17:45:08.510,29162,7514,3375,1749,1001,1533,791,1652,1718,843,914,2707,3629,29197,29206,29175,29184,29179,1397,1305,2614,1353,1955,2781,1177,1155,931,856,1520,1696,29184,29201,2147483647,64738,100,545,14405,1450,7625,64704,0,3,3,2
go to fist,17:45:08.619,29166,7510,3414,1718,997,1560,852,1647,1775,861,940,2689,3651,29170,29140,29210,29188,29179,1415,1287,2649,1375,1955,2759,1155,1133,962,936,1564,1683,29096,29104,2147483647,64729,93,540,14407,1444,7623,64703,0,3,3,2
go to fist,17:45:08.643,29201,7576,3348,1762,958,1533,839,1599,1590,896,927,2623,3612,29197,29052,29219,29214,29126,1406,1305,2632,1410,1999,2707,1160,1138,958,905,1551,1687,29223,29201,2147483647,64735,95,543,14407,1437,7622,64703,0,3,3,2
go to fist,17:45:08.809,29100,7510,3366,1727,966,1533,799,1639,1788,874,940,2702,3563,29148,29170,29184,29236,29157,1397,1274,2636,1397,1977,2676,1129,1107,949,900,1546,1709,29131,28995,2147483647,64732,99,545,14407,1429,7624,64705,0,3,3,2
go to fist,17:45:08.910,29012,7576,3414,1683,958,1516,830,1625,1740,839,918,2715,3594,29223,29184,29223,29197,29188,1428,1283,2649,1406,1968,2685,1177,1160,931,940,1555,1696,29065,29056,2147483647,64736,87,538,14406,1423,7629,64709,0,3,3,2
go to fist,17:45:08.938,29175,7488,3366,1722,971,1529,830,1621,1779,883,949,2733,3629,29236,29170,29153,29162,29144,1432,1261,2649,1397,1942,2671,1168,1133,944,918,1538,1691,29118,29039,2147483647,64736,93,537,14406,1423,7629,64709,0,3,3,2
go to fist,17:45:09.109,29184,7505,3418,1678,988,1564,817,1625,1524,918,927,2707,3603,29153,29087,29065,29087,29157,1437,1278,2680,1419,1973,2680,1142,1133,940,909,1533,1683,29236,29201,2147483647,64736,93,546,14405,1423,7630,64709,0,3,3,2
go to fist,17:45:09.209,29065,7501,3410,1735,953,1546,812,1577,1735,883,936,2676,3581,29267,29179,29188,29228,29188,1410,1265,2636,1423,1946,2654,1125,1129,936,900,1533,1683,29047,29179,2147483647,64738,94,543,14404,1414,7635,64714,0,3,3,2
go to fist,17:45:09.310,29126,7541,3432,1691,1010,1560,830,1608,1735,887,953,2733,3594,29285,29250,29258,29236,29206,1428,1283,2654,1458,1986,2641,1129,1160,958,909,1564,1665,29065,29078,2147483647,64734,89,543,14403,1413,7636,64715,0,3,3,2
go to fist,17:45:09.409,29025,7584,3436,1731,993,1582,830,1599,1753,848,949,2689,3585,29219,29179,29166,29219,29170,1441,1305,2636,1353,1977,2663,1182,1120,922,892,1529,1661,29074,29043,2147483647,64737,88,544,14403,1410,7638,64717,0,3,3,2
go to fist,17:45:09.509,29118,7554,3445,1691,993,1546,843,1586,1735,870,949,2693,3568,29250,29201,29214,29188,29210,1437,1300,2645,1397,1999,2663,1125,1146,962,892,1560,1696,29034,29135,2147483647,64731,92,543,14404,1403,7636,64720,0,3,3,2
go to fist,17:45:09.536,29074,7602,3462,1722,1015,1555,808,1599,1722,883,936,2693,3634,29276,29170,29210,29184,29175,1445,1296,2654,1379,1898,2680,1120,1151,896,883,1546,1678,29096,29083,2147483647,64736,90,552,14406,1398,7634,64723,0,3,3,2
go to fist,17:45:09.634,28964,7593,3489,1718,1010,1564,843,1582,1792,887,936,2658,3660,29236,29201,29166,29197,29148,1415,1274,2623,1432,1946,2641,1146,1129,966,909,1586,1696,29078,28977,2147483647,64734,92,542,14408,1390,7632,64727,0,3,3,2
go to fist,17:45:09.809,29017,7615,3520,1731,979,1555,769,1560,1718,878,931,2689,3669,29245,29214,29197,29201,29219,1423,1283,2645,1371,1968,2671,1120,1186,918,892,1551,1656,29100,29175,2147483647,64740,88,543,14410,1380,7631,64732,0,3,3,2
go to fist,17:45:09.909,29061,7646,3528,1713,988,1577,821,1604,1705,878,962,2680,3634,29210,29170,29122,29166,29166,1450,1296,2680,1419,1933,2619,1133,1164,979,892,1555,1700,29056,29144,2147483647,64729,92,552,14411,1379,7630,64739,0,3,3,2
go to fist,17:45:09.935,29065,7602,3515,1757,1001,1582,791,1551,1696,852,922,2658,3634,29184,29140,29201,29153,29188,1423,1274,2654,1406,1937,2610,1195,1164,997,892,1582,1683,29012,29078,2147483647,64736,82,547,14414,1367,7627,64746,0,3,3,2
wait in fist,17:45:10.119,29012,7637,3533,1757,1010,1555,812,1520,1713,834,940,2614,3616,29228,29214,29192,29170,29184,1423,1274,2671,1432,1986,2619,1195,1120,927,905,1568,1665,29069,29003,2147483647,64744,82,543,14416,1356,7626,64744,0,3,3,2
wait in fist,17:45:10.209,29162,7708,3541,1727,997,1608,799,1524,1542,870,918,2658,3682,29118,29166,29175,29184,29153,1441,1300,2667,1379,1973,2583,1133,1168,940,887,1533,1674,29162,29192,2147483647,64743,82,555,14417,1355,7624,64744,0,3,3,2
wait in fist,17:45:10.309,29144,7721,3581,1744,1019,1625,839,1533,1652,861,940,2632,3678,29201,29122,29144,29113,29100,1445,1296,2663,1432,1977,2583,1168,1142,953,861,1551,1687,29074,29061,2147483647,64736,84,540,14420,1353,7618,64744,0,3,3,2
wait in fist,17:45:10.410,29025,7703,3616,1683,975,1564,826,1538,1595,839,940,2649,3665,29197,29219,29126,29162,29170,1445,1278,2676,1384,1937,2614,1146,1155,958,883,1551,1656,29087,28999,2147483647,64731,83,549,14423,1353,7614,64744,0,3,3,2
wait in fist,17:45:10.509,29034,7690,3550,1696,975,1577,795,1546,1608,843,936,2601,3616,29148,29184,29135,29083,29170,1423,1287,2676,1375,1959,2619,1155,1116,944,892,1555,1674,28920,29030,2147483647,64738,77,554,14424,1345,7612,64743,0,3,3,2
wait in fist,17:45:10.609,28990,7668,3585,1744,993,1546,830,1480,1573,839,971,2614,3687,29179,29184,29197,29197,29206,1441,1287,2693,1384,1959,2649,1173,1146,940,953,1582,1731,29100,29148,2147483647,64740,84,557,14430,1331,7601,64742,0,3,3,2
wait in fist,17:45:10.709,29052,7725,3594,1735,979,1577,791,1507,1502,905,944,2588,3673,29206,29179,29126,29122,29179,1432,1318,2685,1415,1951,2627,1146,1138,944,931,1520,1709,29047,28959,2147483647,64729,92,557,14436,1320,7592,64741,0,3,3,2
wait in fist,17:45:10.810,29100,7760,3651,1709,958,1608,830,1502,1502,856,936,2570,3651,29197,29192,29201,29184,29206,1437,1283,2676,1401,1977,2619,1151,1098,975,896,1529,1718,29078,29074,2147483647,64739,78,549,14440,1308,7587,64742,0,3,3,2
wait in fist,17:45:10.909,29109,7791,3700,1705,984,1555,830,1507,1516,861,927,2627,3656,29144,29153,29175,29192,29144,1419,1265,2667,1401,1929,2614,1133,1133,944,914,1533,1700,28977,29078,2147483647,64738,81,548,14439,1299,7592,64742,0,3,3,2
wait in fist,17:45:11.009,29113,7743,3643,1691,1015,1625,843,1502,1511,834,931,2671,3638,29210,29192,29170,29192,29175,1397,1313,2667,1415,1937,2614,1142,1116,953,870,1494,1691,29100,29091,2147483647,64738,76,550,14435,1294,7602,64741,0,3,3,2
wait in fist,17:45:11.032,29091,7708,3621,1696,984,1608,830,1498,1498,865,936,2588,3656,29179,29210,29192,29206,29175,1415,1296,2676,1410,1929,2605,1129,1085,966,883,1551,1669,29052,29131,2147483647,64736,79,544,14435,1288,7600,64738,0,3,3,2
wait in fist,17:45:11.134,29135,7760,3643,1705,1006,1621,852,1480,1516,887,944,2623,3638,29153,29210,29184,29192,29206,1437,1261,2693,1397,1920,2597,1120,1182,966,914,1546,1696,29069,29131,2147483647,64736,76,548,14437,1284,7598,64736,0,3,3,2
wait in fist,17:45:11.247,29197,7721,3581,1722,993,1617,804,1533,1445,883,900,2645,3704,29184,29210,29109,29144,29219,1393,1300,2693,1401,1968,2570,1138,1155,979,909,1533,1705,29118,29179,2147483647,64739,80,549,14433,1281,7605,64734,0,3,3,2
wait in fist,17:45:11.332,29131,7747,3603,1696,1006,1590,817,1524,1511,861,936,2588,3656,29201,29170,29184,29179,29201,1428,1265,2680,1423,1933,2583,1129,1129,958,896,1538,1709,29065,29131,2147483647,64739,82,549,14434,1278,7604,64732,0,3,3,2
wait in fist,17:45:11.510,29126,7716,3590,1744,975,1608,812,1502,1520,870,958,2597,3717,29175,29214,29192,29126,29201,1423,1287,2649,1379,1924,2614,1107,1173,931,870,1542,1674,29052,29140,2147483647,64735,88,548,14434,1275,7604,64731,0,3,3,2
wait in fist,17:45:11.608,29131,7782,3625,1709,1028,1560,799,1485,1485,852,962,2553,3704,29236,29157,29192,29175,29241,1437,1287,2702,1393,1924,2570,1129,1081,953,909,1560,1669,29047,29140,2147483647,64737,75,544,14434,1273,7604,64731,0,3,3,2
wait in fist,17:45:11.708,29109,7725,3629,1727,1023,1586,795,1494,1498,834,918,2570,3660,29135,29201,29232,29170,29135,1384,1283,2610,1419,1902,2597,1155,1116,927,927,1511,1634,29122,29118,2147483647,64735,77,543,14431,1272,7610,64732,0,3,3,2
wait in fist,17:45:11.808,29113,7672,3581,1735,1023,1573,808,1463,1463,843,944,2588,3616,29223,29223,29184,29188,29241,1401,1309,2619,1406,1968,2557,1120,1125,962,865,1524,1700,29069,29122,2147483647,64739,83,549,14431,1276,7610,64734,0,3,3,2
wait in fist,17:45:11.909,29157,7650,3638,1705,979,1599,760,1480,1524,874,918,2531,3695,29179,29219,29206,29091,29214,1428,1300,2627,1393,1929,2592,1129,1111,922,927,1538,1683,29122,29179,2147483647,64732,77,542,14432,1279,7609,64740,0,3,3,2
wait in fist,17:45:12.008,29126,7686,3612,1683,975,1625,826,1494,1494,852,958,2548,3695,29126,29175,29214,29232,29197,1428,1296,2645,1384,1894,2566,1133,1107,905,883,1520,1669,29047,29148,2147483647,64733,81,552,14432,1282,7608,64745,0,3,3,2
wait in fist,17:45:12.108,29153,7747,3616,1700,1001,1573,817,1542,1502,874,936,2575,3607,29192,29179,29170,29188,29228,1428,1261,2654,1384,1942,2605,1133,1116,944,848,1524,1683,29061,29157,2147483647,64735,83,553,14433,1282,7608,64752,0,3,3,2
wait in fist,17:45:12.209,29170,7729,3616,1678,940,1617,817,1480,1480,878,940,2544,3660,29175,29219,29166,29144,29228,1401,1309,2649,1406,1933,2588,1120,1138,958,905,1529,1709,29056,29122,2147483647,64732,78,548,14435,1262,7606,64757,0,3,3,2
wait in fist,17:45:12.309,29118,7747,3607,1735,988,1586,791,1463,1498,874,931,2579,3669,29179,29201,29250,29184,29192,1410,1291,2676,1406,1942,2579,1138,1125,993,887,1529,1718,29074,29170,2147483647,64735,84,548,14434,1248,7611,64759,0,3,3,2
wait in fist,17:45:12.408,29083,7699,3599,1740,1028,1604,817,1511,1463,843,958,2557,3621,29197,29223,29179,29179,29223,1428,1300,2632,1366,1933,2579,1107,1081,966,922,1542,1674,29091,29188,2147483647,64730,81,547,14434,1236,7614,64765,0,3,3,2
wait in fist,17:45:12.508,29166,7725,3612,1705,1023,1586,830,1498,1520,821,927,2544,3678,29179,29258,29192,29241,29210,1419,1287,2632,1419,1933,2579,1129,1116,975,914,1546,1652,29034,29166,2147483647,64733,80,549,14429,1226,7626,64772,0,3,3,2
wait in fist,17:45:12.533,29144,7712,3572,1696,993,1564,773,1463,1467,852,949,2548,3682,29184,29210,29175,29214,29232,1458,1283,2636,1410,1916,2570,1164,1155,949,878,1533,1691,29109,29069,2147483647,64737,76,549,14427,1223,7630,64776,0,3,3,2
wait in fist,17:45:12.634,29118,7708,3629,1731,975,1590,791,1502,1454,843,936,2557,3700,29206,29254,29241,29232,29214,1406,1331,2680,1393,1920,2562,1133,1111,940,909,1546,1669,29118,29135,2147483647,64736,73,543,14423,1223,7638,64777,0,3,3,2
wait in fist,17:45:12.808,29021,7729,3590,1718,1015,1595,856,1524,1445,896,944,2601,3704,29210,29223,29201,29188,29214,1450,1305,2658,1371,1916,2579,1129,1120,953,896,1551,1691,29039,29100,2147483647,64741,75,545,14423,1223,7638,64777,0,3,3,2
wait in fist,17:45:12.836,29065,7694,3590,1713,993,1542,852,1489,1498,843,922,2553,3647,29197,29228,29184,29188,29254,1415,1309,2676,1397,1880,2535,1125,1107,962,896,1507,1674,29122,29078,2147483647,64734,77,544,14425,1224,7635,64781,0,3,3,2
wait in fist,17:45:13.009,29043,7699,3625,1691,971,1573,852,1507,1507,887,949,2575,3687,29184,29210,29157,29135,29232,1432,1305,2698,1415,1894,2583,1138,1089,979,887,1516,1683,29065,29096,2147483647,64735,71,549,14428,1223,7630,64781,0,3,3,2
wait in fist,17:45:13.034,29118,7738,3599,1727,979,1555,808,1454,1511,870,922,2610,3695,29206,29276,29219,29206,29214,1423,1283,2680,1419,1872,2570,1133,1133,979,874,1494,1678,29069,29140,2147483647,64740,77,553,14430,1227,7626,64784,0,3,3,2
wait in fist,17:45:13.208,29047,7708,3673,1735,1028,1577,812,1494,1472,865,958,2557,3629,29144,29241,29245,29214,29285,1415,1287,2654,1375,1955,2544,1111,1116,944,918,1542,1709,29025,29083,2147483647,64734,82,544,14426,1229,7633,64788,0,3,3,2
wait in fist,17:45:13.308,29144,7716,3594,1713,1001,1586,834,1458,1454,830,931,2579,3700,29197,29214,29206,29232,29263,1437,1270,2671,1388,1942,2570,1133,1103,988,905,1542,1669,29078,29122,2147483647,64735,77,544,14419,1240,7644,64796,0,3,3,2
wait in fist,17:45:13.409,29056,7778,3625,1713,1019,1560,795,1511,1450,848,927,2548,3691,29175,29285,29210,29184,29223,1450,1265,2663,1388,1951,2588,1129,1138,940,975,1542,1722,29039,29074,2147483647,64736,81,549,14416,1260,7647,64796,0,3,3,2
wait in fist,17:45:13.433,29118,7694,3572,1696,993,1551,782,1480,1511,821,918,2544,3687,29206,29236,29201,29210,29232,1379,1287,2592,1366,1942,2641,1138,1146,936,914,1533,1683,29052,29126,2147483647,64733,80,550,14417,1261,7645,64796,0,3,3,2
wait in fist,17:45:13.536,29052,7729,3629,1661,1006,1582,830,1480,1463,883,984,2544,3691,29192,29206,29126,29131,29302,1393,1309,2685,1450,1916,2540,1129,1138,975,900,1533,1700,29104,29034,2147483647,64729,77,539,14415,1261,7649,64796,0,3,3,2
wait in fist,17:45:13.709,29065,7721,3599,1709,1006,1573,782,1516,1489,856,949,2526,3669,29223,29263,29223,29210,29232,1419,1327,2649,1388,1889,2557,1094,1125,936,852,1560,1678,29065,29078,2147483647,64734,82,542,14413,1261,7652,64796,0,3,3,2
wait in fist,17:45:13.737,29078,7694,3616,1696,1006,1612,817,1507,1507,852,949,2562,3660,29219,29223,29245,29197,29250,1450,1287,2685,1397,1924,2627,1182,1120,971,953,1529,1678,29052,29144,2147483647,64733,81,546,14413,1261,7653,64796,0,3,3,2
wait in fist,17:45:13.908,29074,7694,3577,1678,1010,1608,812,1524,1489,865,944,2557,3673,29258,29197,29214,29219,29192,1415,1340,2663,1437,1907,2575,1133,1142,971,905,1560,1656,29153,29100,2147483647,64726,81,539,14414,1264,7651,64801,0,3,3,2
wait in fist,17:45:14.008,29131,7708,3612,1718,975,1560,821,1498,1480,861,931,2553,3656,29144,29201,29188,29175,29175,1410,1313,2680,1437,1920,2592,1160,1142,966,865,1538,1722,29065,29047,2147483647,64731,80,539,14414,1264,7650,64801,0,3,3,2
wait in fist,17:45:14.109,29131,7751,3621,1687,1023,1604,812,1494,1480,870,962,2570,3647,29197,29197,29223,29267,29214,1458,1300,2680,1397,1898,2601,1142,1098,949,892,1542,1665,29091,29126,2147483647,64734,83,540,14415,1263,7650,64801,0,3,3,2
wait in fist,17:45:14.209,29074,7681,3599,1683,1006,1595,852,1498,1476,870,927,2522,3643,29166,29157,29179,29188,29122,1397,1261,2707,1397,1920,2579,1146,1116,958,918,1582,1634,29047,29039,2147483647,64732,81,545,14415,1263,7649,64801,0,3,3,2
wait in fist,17:45:14.308,29065,7712,3599,1722,971,1573,773,1485,1485,878,953,2557,3634,29267,29245,29232,29223,29184,1423,1283,2645,1423,1907,2614,1133,1142,958,896,1542,1705,29104,29065,2147483647,64732,77,543,14416,1263,7648,64801,0,3,3,2
wait in fist,17:45:14.408,29078,7747,3577,1678,988,1586,830,1520,1437,839,927,2579,3651,29166,29170,29214,29188,29179,1362,1278,2649,1379,1907,2544,1133,1089,993,905,1564,1705,29148,29074,2147483647,64737,82,548,14416,1263,7648,64799,0,3,3,2
wait in fist,17:45:14.509,29109,7690,3634,1691,1006,1582,808,1507,1524,817,931,2518,3625,29184,29219,29192,29245,29214,1401,1278,2702,1384,1898,2583,1116,1116,927,900,1538,1674,29131,29025,2147483647,64738,80,544,14415,1260,7648,64794,0,3,3,2
wait in fist,17:45:14.533,29065,7681,3634,1687,1001,1573,791,1498,1450,852,958,2557,3612,29214,29162,29214,29135,29148,1428,1296,2676,1415,1894,2566,1116,1129,922,874,1546,1674,29065,29104,2147483647,64728,84,542,14416,1252,7648,64794,0,3,3,2
wait in fist,17:45:14.632,29074,7721,3590,1691,1006,1568,834,1480,1485,856,936,2548,3656,29157,29214,29140,29210,29232,1379,1270,2671,1379,1880,2575,1120,1085,958,883,1538,1705,29052,29091,2147483647,64734,76,548,14417,1245,7648,64794,0,3,3,2
wait in fist,17:45:14.731,29052,7725,3625,1674,997,1577,843,1441,1480,843,918,2518,3634,29175,29258,29254,29192,29223,1410,1335,2658,1415,1920,2579,1138,1089,958,914,1511,1718,29153,29074,2147483647,64736,72,549,14417,1235,7650,64796,0,3,3,2
wait in fist,17:45:14.833,29061,7699,3607,1709,997,1586,830,1507,1494,843,927,2557,3634,29162,29184,29162,29170,29219,1401,1278,2680,1410,1863,2592,1129,1116,936,883,1551,1696,29118,29096,2147483647,64734,78,548,14418,1230,7648,64793,0,3,3,2
wait in fist,17:45:15.008,29153,7686,3585,1722,962,1586,808,1463,1476,856,984,2562,3647,29153,29109,28999,29052,29074,1397,1305,2649,1410,1916,2566,1133,1125,962,870,1560,1647,29078,29201,2147483647,64728,81,543,14420,1221,7647,64795,0,3,3,2
fist to thumbs,17:45:15.108,29047,7716,3594,1643,993,1590,817,1494,1494,848,927,2557,3651,29188,29179,29184,29175,29148,1437,1300,2636,1415,1907,2575,1155,1081,979,918,1555,1656,29140,29061,2147483647,64733,77,545,14419,1219,7647,64794,0,3,3,2
fist to thumbs,17:45:15.135,29083,7708,3577,1740,988,1573,804,1467,1467,878,940,2570,3634,29148,29210,29206,29192,29223,1406,1313,2623,1375,1916,2544,1182,1103,944,905,1511,1674,29148,29118,2147483647,64735,76,547,14419,1216,7648,64792,0,3,3,2
fist to thumbs,17:45:15.241,29197,7699,3616,1731,993,1582,769,1494,1467,874,949,2540,3660,29148,29096,29034,29104,29131,1415,1300,2597,1393,1898,2548,1089,1129,958,900,1507,1705,29162,29162,2147483647,64733,70,544,14420,1212,7646,64791,0,3,3,2
fist to thumbs,17:45:15.408,29118,7738,3665,1647,993,1590,795,1546,1445,839,914,2526,3660,29126,29192,29250,29219,29179,1437,1252,2649,1406,1924,2548,1103,1138,966,900,1560,1683,29109,29144,2147483647,64728,74,547,14422,1212,7644,64795,0,3,3,2
fist to thumbs,17:45:15.508,29214,7734,3616,1718,997,1573,852,1529,1494,874,940,2540,3656,29170,29074,29061,29074,29140,1419,1309,2610,1371,1902,2553,1151,1120,953,865,1516,1683,29153,29210,2147483647,64743,82,546,14423,1207,7642,64794,0,3,3,2
fist to thumbs,17:45:15.536,29056,7712,3621,1731,958,1573,804,1489,1454,852,962,2535,3691,29166,29179,29197,29192,29206,1410,1261,2658,1397,1880,2575,1160,1098,922,892,1529,1696,29144,29091,2147483647,64739,76,547,14427,1201,7635,64798,0,3,3,2
fist to thumbs,17:45:15.636,29065,7743,3616,1700,997,1582,804,1502,1480,878,927,2553,3651,29065,29179,29228,29206,29184,1419,1305,2663,1362,1907,2597,1098,1129,958,896,1516,1652,29113,29025,2147483647,64736,80,544,14433,1208,7624,64807,0,3,3,2
fist to thumbs,17:45:15.818,29078,7725,3638,1705,975,1577,817,1511,1450,856,944,2597,3651,29034,29201,29219,29241,29206,1423,1270,2671,1423,1907,2531,1120,1116,914,896,1502,1705,29192,29087,2147483647,64735,81,552,14434,1213,7621,64804,0,3,3,2
fist to thumbs,17:45:15.909,29179,7708,3599,1718,966,1595,799,1489,1507,870,958,2566,3673,29166,29118,29179,29162,29140,1388,1265,2623,1384,1885,2619,1129,1120,927,870,1555,1665,29166,29184,2147483647,64734,80,552,14439,1213,7612,64803,0,3,3,2
fist to thumbs,17:45:16.009,29179,7738,3612,1709,997,1555,786,1485,1441,870,958,2553,3651,29148,29104,29144,29131,29157,1428,1265,2614,1401,1924,2544,1116,1103,944,914,1520,1678,29052,29179,2147483647,64736,77,544,14444,1212,7602,64802,0,3,3,2
fist to thumbs,17:45:16.108,29096,7703,3612,1674,988,1604,804,1472,1480,856,896,2575,3651,28929,29201,29210,29170,29192,1432,1313,2641,1393,1902,2592,1151,1098,949,887,1551,1674,29170,29091,2147483647,64739,79,554,14446,1212,7599,64802,0,3,3,2
fist to thumbs,17:45:16.131,29043,7716,3612,1696,993,1625,799,1489,1454,843,931,2575,3656,29162,29223,29258,29285,29214,1419,1313,2636,1401,1942,2531,1120,1107,966,940,1546,1669,29188,29109,2147483647,64732,77,548,14447,1213,7597,64803,0,3,3,2
fist to thumbs,17:45:16.309,29100,7743,3603,1705,984,1586,826,1485,1458,905,922,2601,3669,28990,29126,29223,29197,29219,1393,1305,2658,1397,1924,2605,1116,1138,993,909,1529,1661,29122,29061,2147483647,64736,76,545,14447,1212,7597,64802,0,3,3,2
fist to thumbs,17:45:16.409,29104,7708,3607,1709,1015,1564,830,1494,1450,883,922,2636,3643,29096,29162,29232,29250,29219,1437,1291,2614,1428,1902,2605,1103,1133,931,892,1555,1665,29126,29065,2147483647,64740,77,554,14447,1211,7597,64802,0,3,3,2
fist to thumbs,17:45:16.508,29074,7729,3625,1683,971,1608,826,1485,1502,883,940,2553,3643,29087,29166,29232,29219,29184,1441,1265,2605,1393,1924,2636,1129,1094,922,892,1511,1643,29148,29122,2147483647,64737,76,553,14448,1211,7595,64802,0,3,3,2
fist to thumbs,17:45:16.608,29148,7690,3599,1705,971,1560,795,1480,1489,834,940,2570,3660,29126,29228,29289,29285,29223,1406,1296,2610,1388,1854,2614,1146,1107,927,905,1529,1661,29166,29074,2147483647,64737,73,550,14449,1209,7592,64800,0,3,3,2
fist to thumbs,17:45:16.709,29104,7708,3643,1678,1019,1546,786,1489,1467,852,953,2605,3651,29003,29192,29236,29232,29184,1388,1278,2623,1393,1898,2632,1120,1120,940,896,1542,1696,29113,29074,2147483647,64743,74,557,14450,1209,7592,64800,0,3,3,2
fist to thumbs,17:45:16.809,29104,7721,3616,1696,993,1551,817,1485,1485,852,944,2601,3651,29039,29236,29214,29267,29166,1428,1270,2627,1379,1907,2636,1142,1133,949,905,1511,1647,29100,29100,2147483647,64741,70,553,14449,1208,7593,64800,0,3,3,2
fist to thumbs,17:45:16.908,29087,7694,3607,1727,971,1538,848,1489,1467,843,922,2535,3625,29131,29170,29197,29250,29232,1410,1265,2614,1406,1889,2649,1107,1133,936,905,1502,1665,29201,29096,2147483647,64739,76,557,14448,1207,7595,64798,0,3,3,2
fist to thumbs,17:45:17.009,29078,7708,3594,1709,997,1573,817,1502,1476,874,936,2535,3673,29126,29250,29214,29241,29214,1428,1270,2614,1375,1898,2636,1146,1138,940,892,1533,1656,29206,29087,2147483647,64738,69,551,14449,1207,7594,64798,0,3,3,2
fist to thumbs,17:45:17.109,29061,7694,3577,1687,988,1529,808,1529,1463,861,931,2575,3682,29034,29188,29219,29214,29148,1401,1313,2663,1375,1911,2641,1094,1142,966,909,1538,1687,29188,29140,2147483647,64737,73,556,14449,1205,7594,64794,0,3,3,2
fist to thumbs,17:45:17.134,29061,7699,3577,1722,997,1577,830,1485,1472,861,975,2583,3665,28946,29175,29210,29245,29219,1415,1261,2627,1419,1902,2641,1138,1120,966,852,1507,1674,29188,29043,2147483647,64740,67,553,14449,1205,7594,64795,0,3,3,2
fist to thumbs,17:45:17.241,29140,7743,3599,1691,984,1551,826,1485,1467,856,922,2623,3656,29148,29131,29052,29078,29109,1406,1270,2623,1388,1863,2623,1085,1129,953,914,1529,1674,29100,29192,2147483647,64733,72,556,14448,1201,7596,64797,0,3,3,2
fist to thumbs,17:45:17.409,29175,7664,3546,1678,1006,1573,839,1520,1472,909,914,2588,3607,29030,29157,29223,29192,29175,1432,1309,2605,1397,1907,2649,1107,1107,944,922,1542,1656,29113,29131,2147483647,64736,74,554,14447,1198,7599,64799,0,3,3,2
fist to thumbs,17:45:17.509,29078,7677,3607,1700,1001,1568,848,1498,1480,883,936,2601,3625,29131,29188,29184,29175,29179,1445,1331,2645,1393,1898,2592,1151,1116,953,914,1542,1656,29188,29056,2147483647,64736,72,555,14443,1190,7608,64804,0,3,3,2
fist to thumbs,17:45:17.608,29122,7721,3599,1656,1001,1590,830,1485,1441,878,931,2579,3647,28959,29192,29162,29153,29184,1419,1313,2654,1406,1902,2627,1076,1111,931,896,1516,1652,29170,29157,2147483647,64740,65,550,14443,1184,7610,64807,0,3,3,2
fist to thumbs,17:45:17.708,29091,7787,3599,1766,958,1529,834,1502,1533,848,936,2588,3616,29043,29206,29210,29214,29175,1445,1327,2636,1384,1907,2654,1151,1116,918,900,1520,1661,29126,29091,2147483647,64735,69,555,14443,1179,7610,64809,0,3,3,2
fist to thumbs,17:45:17.736,29148,7773,3665,1669,984,1599,821,1494,1472,839,927,2566,3616,29052,29144,29166,29206,29188,1415,1296,2654,1401,1894,2663,1133,1111,962,892,1542,1722,29131,29135,2147483647,64729,70,554,14441,1165,7616,64810,0,3,3,2
fist to thumbs,17:45:17.909,29087,7760,3647,1705,1001,1590,821,1529,1494,843,931,2583,3634,29135,29250,29188,29197,29228,1410,1283,2614,1419,1828,2627,1168,1076,962,883,1498,1652,29153,29153,2147483647,64738,65,546,14438,1153,7623,64811,0,3,3,2
fist to thumbs,17:45:18.008,29100,7743,3651,1705,997,1595,808,1538,1476,909,936,2579,3638,29047,29179,29175,29232,29135,1423,1296,2654,1379,1880,2627,1120,1138,949,900,1546,1678,29223,29148,2147483647,64743,68,553,14436,1143,7628,64811,0,3,3,2
fist to thumbs,17:45:18.109,29170,7804,3638,1735,966,1533,799,1480,1494,874,931,2553,3651,29100,29245,29210,29162,29188,1410,1335,2623,1388,1929,2654,1138,1089,975,927,1538,1639,29153,29184,2147483647,64736,65,548,14438,1135,7626,64809,0,3,3,2
fist to thumbs,17:45:18.134,29096,7773,3665,1700,988,1573,830,1463,1445,834,971,2583,3607,29030,29192,29170,29157,29192,1393,1331,2632,1419,1894,2601,1120,1089,944,918,1507,1669,29140,29148,2147483647,64731,66,548,14436,1129,7631,64808,0,3,3,2
fist to thumbs,17:45:18.309,29135,7804,3660,1683,971,1599,795,1498,1463,861,936,2570,3634,29144,29206,29153,29170,29219,1423,1318,2654,1384,1885,2685,1138,1151,962,905,1582,1696,29228,29179,2147483647,64742,67,546,14436,1126,7631,64806,0,3,3,2
fist to thumbs,17:45:18.408,29109,7800,3708,1687,975,1555,795,1494,1476,856,927,2548,3629,29148,29197,29148,29236,29228,1384,1322,2658,1419,1898,2680,1133,1103,958,896,1546,1683,29192,29175,2147483647,64736,63,547,14434,1124,7635,64803,0,3,3,2
fist to thumbs,17:45:18.509,29228,7804,3695,1691,979,1551,817,1472,1450,848,966,2531,3625,29192,29228,29254,29293,29201,1441,1313,2671,1406,1898,2680,1125,1081,931,865,1511,1639,29153,29188,2147483647,64729,62,549,14433,1127,7637,64803,0,3,3,2
fist to thumbs,17:45:18.609,29140,7800,3700,1700,1010,1621,843,1450,1489,887,979,2566,3634,29148,29175,29135,29157,29184,1349,1305,2645,1388,1894,2649,1107,1103,958,914,1533,1744,29162,29131,2147483647,64735,64,543,14432,1124,7639,64802,0,3,3,2
fist to thumbs,17:45:18.708,29126,7773,3678,1691,1015,1542,808,1511,1467,826,953,2557,3577,29100,29170,29197,29250,29210,1406,1340,2623,1423,1929,2680,1116,1107,966,905,1529,1656,29175,29148,2147483647,64734,68,544,14427,1125,7648,64802,0,3,3,2
fist to thumbs,17:45:18.734,29162,7800,3669,1696,1028,1586,839,1507,1546,861,949,2526,3625,29144,29157,29184,29197,29166,1450,1309,2605,1397,1907,2627,1098,1098,953,900,1560,1669,29188,29197,2147483647,64727,64,542,14430,1128,7642,64807,0,3,3,2
fist to thumbs,17:45:18.909,29157,7760,3673,1683,984,1582,782,1533,1458,870,966,2583,3594,29201,29109,29030,28964,29131,1406,1287,2627,1423,1889,2645,1125,1116,993,892,1538,1661,29201,29184,2147483647,64730,69,545,14436,1127,7632,64806,0,3,3,2
fist to thumbs,17:45:19.009,29144,7795,3629,1696,975,1573,848,1489,1472,852,953,2548,3612,29135,29113,29228,29210,29148,1432,1335,2676,1362,1889,2693,1098,1116,940,944,1538,1625,29118,29166,2147483647,64741,69,548,14440,1127,7624,64805,0,3,3,2
fist to thumbs,17:45:19.033,29144,7795,3678,1709,1010,1564,804,1524,1454,896,975,2531,3643,29104,29162,29175,29184,29135,1393,1296,2649,1415,1920,2627,1094,1089,944,874,1538,1656,29166,29162,2147483647,64731,69,551,14442,1127,7619,64806,0,3,3,2
fist to thumbs,17:45:19.208,29192,7844,3673,1687,993,1560,852,1485,1419,896,931,2557,3625,29148,29144,29188,29157,29184,1388,1318,2623,1428,1902,2601,1107,1120,958,922,1511,1656,29245,29206,2147483647,64734,66,553,14443,1128,7619,64808,0,3,3,2
fist to thumbs,17:45:19.309,29135,7813,3691,1691,993,1564,843,1502,1432,848,975,2535,3594,29157,29175,29162,29210,29135,1419,1265,2610,1406,1907,2658,1120,1125,953,896,1524,1647,29210,29188,2147483647,64736,72,544,14440,1132,7623,64815,0,3,3,2
fist to thumbs,17:45:19.333,29201,7835,3678,1669,1001,1595,834,1520,1507,861,949,2583,3581,29131,29091,29179,29197,29179,1415,1278,2671,1379,1898,2641,1125,1129,953,922,1520,1656,29201,29175,2147483647,64741,69,550,14434,1134,7635,64817,0,3,3,2
fist to thumbs,17:45:19.431,29140,7791,3682,1691,988,1533,821,1494,1502,874,927,2557,3625,29118,29087,29170,29232,29157,1423,1291,2579,1458,1894,2619,1160,1125,997,914,1546,1683,29140,29113,2147483647,64734,71,551,14431,1135,7640,64818,0,3,3,2
fist to thumbs,17:45:19.609,29214,7835,3708,1678,1015,1590,804,1511,1489,892,905,2540,3607,29210,29135,29012,28981,29135,1450,1270,2601,1397,1911,2671,1129,1129,944,922,1546,1687,29166,29241,2147483647,64731,69,546,14430,1138,7643,64824,0,3,3,2
fist to thumbs,17:45:19.639,29157,7817,3730,1691,997,1568,843,1573,1437,900,958,2544,3621,29157,29074,29184,29179,29179,1415,1287,2671,1362,1911,2649,1120,1067,966,900,1529,1647,29122,29157,2147483647,64742,64,550,14431,1139,7641,64832,0,3,3,2
fist to thumbs,17:45:19.808,29184,7813,3665,1691,971,1564,839,1533,1494,883,949,2504,3607,29170,29118,28995,28968,29131,1415,1327,2632,1393,1911,2671,1116,1146,940,918,1560,1691,29162,29153,2147483647,64731,75,544,14436,1140,7631,64835,0,3,3,2
fist to thumbs,17:45:19.908,29192,7857,3695,1705,1006,1560,804,1595,1472,865,936,2557,3550,29153,29047,29184,29206,29056,1432,1278,2627,1410,1902,2702,1120,1133,979,883,1568,1665,29140,29188,2147483647,64735,74,550,14438,1137,7629,64836,0,3,3,2
fist to thumbs,17:45:20.009,29144,7826,3691,1678,984,1595,817,1533,1450,856,971,2553,3594,29175,29122,29170,29188,29012,1410,1265,2636,1375,1876,2636,1160,1107,979,927,1524,1674,29175,29175,2147483647,64732,70,554,14434,1128,7638,64842,0,3,3,2
rest in thumbs,17:45:20.109,29078,7782,3687,1674,971,1560,812,1538,1445,865,936,2478,3572,29100,29104,29184,29192,29109,1410,1278,2645,1379,1867,2698,1107,1133,927,931,1538,1696,29166,29091,2147483647,64729,79,540,14434,1126,7639,64847,0,3,3,2
rest in thumbs,17:45:20.208,29166,7809,3660,1683,1019,1560,799,1568,1450,830,922,2504,3555,29166,29184,29232,29232,29052,1393,1300,2623,1388,1911,2671,1164,1146,988,900,1502,1669,29192,29170,2147483647,64736,78,553,14431,1118,7647,64854,0,3,3,2
rest in thumbs,17:45:20.308,29126,7800,3673,1718,1037,1599,817,1577,1432,878,936,2487,3603,29162,29074,29197,29175,29012,1366,1261,2645,1423,1894,2645,1111,1103,966,887,1546,1652,29118,29184,2147483647,64734,73,538,14428,1111,7653,64858,0,3,3,2
rest in thumbs,17:45:20.334,29214,7756,3678,1674,971,1520,848,1520,1458,870,962,2496,3559,29113,29206,29188,29188,29039,1406,1283,2641,1397,1876,2654,1129,1146,958,900,1538,1696,29135,29232,2147483647,64743,67,544,14425,1104,7661,64862,0,3,3,2
rest in thumbs,17:45:20.509,29184,7826,3678,1696,1006,1612,764,1520,1437,896,962,2452,3585,29170,29083,29250,29170,29087,1450,1261,2597,1397,1911,2632,1094,1138,958,896,1551,1647,29144,29219,2147483647,64737,66,535,14418,1091,7677,64871,0,3,3,2
rest in thumbs,17:45:20.608,29188,7813,3695,1700,993,1555,808,1560,1445,887,936,2496,3559,29131,29061,29223,29214,29170,1432,1300,2575,1415,1902,2645,1107,1116,975,887,1551,1687,29157,29175,2147483647,64731,68,545,14416,1080,7681,64877,0,3,3,2
rest in thumbs,17:45:20.709,29157,7791,3678,1687,1015,1542,782,1555,1458,852,900,2504,3568,29104,29047,29157,29232,29083,1397,1283,2649,1393,1911,2614,1111,1089,993,883,1560,1656,29135,29166,2147483647,64728,60,543,14411,1078,7692,64879,0,3,3,2
rest in thumbs,17:45:20.809,29166,7760,3651,1678,997,1564,795,1542,1432,870,905,2460,3634,29109,29078,29232,29245,29144,1375,1252,2663,1379,1907,2579,1138,1138,949,909,1551,1665,29210,29184,2147483647,64734,74,552,14408,1092,7696,64878,0,3,3,2
rest in thumbs,17:45:20.840,29250,7756,3629,1661,997,1577,812,1538,1502,843,953,2416,3621,29289,29175,28999,29096,29201,1463,1274,2641,1410,1889,2627,1107,1081,953,896,1520,1652,29184,29179,2147483647,64731,76,535,14415,1094,7683,64896,0,3,3,2
rest in thumbs,17:45:21.008,29197,7813,3660,1691,1001,1551,795,1524,1450,865,918,2491,3594,29175,29113,29223,29223,29118,1384,1265,2597,1366,1880,2623,1142,1120,936,896,1542,1678,29170,29206,2147483647,64731,76,552,14419,1094,7677,64898,0,3,3,2
rest in thumbs,17:45:21.109,29192,7769,3568,1718,1015,1511,812,1520,1454,931,971,2452,3572,29144,29043,29192,29206,29078,1428,1248,2623,1393,1867,2671,1138,1076,927,900,1498,1700,29118,29179,2147483647,64734,80,552,14423,1112,7667,64897,0,3,3,2
rest in thumbs,17:45:21.209,29170,7756,3651,1727,1001,1555,773,1533,1441,878,922,2469,3594,29153,29166,29232,29214,29113,1445,1261,2658,1406,1872,2614,1107,1129,971,900,1529,1656,29162,29170,2147483647,64722,70,541,14427,1120,7656,64894,0,3,3,2
rest in thumbs,17:45:21.308,29206,7765,3629,1713,1041,1551,760,1533,1419,874,944,2491,3616,29118,29043,29175,29179,29087,1419,1291,2636,1349,1933,2619,1138,1125,962,887,1551,1687,29104,29157,2147483647,64736,62,547,14429,1122,7652,64890,0,3,3,2
rest in thumbs,17:45:21.408,29140,7747,3625,1687,1032,1555,817,1564,1401,896,931,2438,3559,29153,29170,29210,29219,29083,1415,1274,2619,1419,1916,2632,1125,1116,966,896,1538,1718,29131,29184,2147483647,64732,80,546,14432,1119,7648,64885,0,3,3,2
rest in thumbs,17:45:21.432,29206,7756,3673,1687,993,1538,834,1551,1423,900,940,2478,3607,29113,29166,29184,29206,29012,1415,1265,2667,1362,1876,2632,1111,1103,905,905,1542,1678,29113,29219,2147483647,64735,68,548,14433,1117,7645,64884,0,3,3,2
rest in thumbs,17:45:21.619,29188,7773,3625,1696,1010,1590,795,1555,1437,861,936,2531,3594,29148,29091,29201,29254,29109,1406,1283,2654,1410,1916,2623,1116,1138,971,927,1533,1696,29144,29166,2147483647,64734,76,549,14437,1120,7636,64880,0,3,3,2
rest in thumbs,17:45:21.708,29153,7747,3629,1669,971,1573,817,1529,1450,870,927,2474,3581,29201,29192,29113,29140,29175,1454,1270,2671,1384,1885,2592,1146,1125,927,900,1502,1652,29144,29162,2147483647,64729,69,549,14440,1126,7631,64879,0,3,3,2
rest in thumbs,17:45:21.809,29153,7769,3607,1652,1010,1568,821,1524,1428,883,958,2474,3585,29170,29056,29179,29153,29065,1423,1287,2676,1397,1876,2627,1129,1116,953,914,1520,1713,29052,29232,2147483647,64735,80,553,14441,1126,7629,64879,0,3,3,2
rest in thumbs,17:45:21.909,29197,7734,3594,1705,1010,1555,817,1560,1419,834,958,2487,3594,29140,28968,29188,29210,29030,1410,1274,2654,1371,1951,2588,1151,1107,953,905,1498,1696,29162,29223,2147483647,64739,76,544,14443,1125,7625,64878,0,3,3,2
rest in thumbs,17:45:21.934,29166,7725,3616,1691,979,1568,773,1533,1415,856,944,2443,3621,29184,29043,29214,29201,29074,1371,1274,2654,1388,1894,2654,1116,1133,931,918,1511,1665,29047,29157,2147483647,64737,78,548,14445,1127,7620,64881,0,3,3,2
rest in thumbs,17:45:22.108,29126,7751,3599,1661,1019,1564,791,1502,1467,896,936,2474,3594,29122,29104,29153,29192,29061,1445,1261,2654,1397,1894,2583,1133,1120,988,900,1538,1678,29206,29175,2147483647,64730,77,548,14447,1128,7618,64881,0,3,3,2
rest in thumbs,17:45:22.209,29197,7760,3599,1674,988,1595,773,1511,1423,870,949,2474,3577,29140,29100,29214,29192,29184,1419,1283,2649,1366,1898,2597,1120,1098,949,887,1511,1665,29131,29192,2147483647,64737,65,552,14443,1130,7624,64880,0,3,3,2
rest in thumbs,17:45:22.309,29184,7765,3616,1713,1023,1555,764,1568,1397,848,909,2443,3581,29166,29140,29232,29188,29162,1423,1278,2636,1388,1902,2636,1111,1103,949,927,1573,1647,29157,29232,2147483647,64748,75,552,14443,1137,7622,64876,0,3,3,2
rest in thumbs,17:45:22.409,29122,7787,3572,1740,984,1560,821,1502,1419,878,914,2447,3572,29140,29140,29232,29153,29162,1423,1270,2649,1423,1876,2588,1098,1103,953,918,1538,1665,29153,29210,2147483647,64730,78,550,14442,1136,7625,64877,0,3,3,2
rest in thumbs,17:45:22.432,29153,7756,3607,1700,1001,1529,826,1529,1410,914,931,2496,3541,29188,29175,29223,29276,29118,1450,1274,2645,1428,1916,2557,1107,1125,975,865,1551,1599,29104,29197,2147483647,64732,79,549,14441,1137,7626,64877,0,3,3,2
rest in thumbs,17:45:22.609,29144,7677,3563,1656,1019,1524,834,1555,1441,865,971,2504,3581,29096,29144,29188,29126,29157,1441,1305,2614,1371,1854,2579,1125,1107,949,918,1533,1678,29122,29166,2147483647,64742,75,547,14439,1136,7631,64878,0,3,3,2
rest in thumbs,17:45:22.709,29175,7690,3577,1683,1023,1560,808,1542,1463,878,966,2438,3577,29113,29135,29122,29175,29135,1423,1243,2654,1410,1894,2579,1120,1098,931,909,1582,1665,29109,29184,2147483647,64738,78,543,14437,1131,7635,64873,0,3,3,2
rest in thumbs,17:45:22.808,29188,7769,3603,1705,1001,1568,808,1533,1410,874,940,2469,3568,29140,29131,29179,29122,29131,1379,1309,2654,1384,1867,2566,1103,1103,971,914,1520,1665,29118,29162,2147483647,64736,78,546,14436,1133,7637,64872,0,3,3,2
rest in thumbs,17:45:22.909,29184,7747,3625,1687,997,1546,795,1542,1445,826,988,2456,3577,29122,29223,29219,29267,29184,1393,1261,2676,1401,1894,2575,1107,1142,940,896,1546,1669,29192,29192,2147483647,64738,65,557,14435,1134,7639,64877,0,3,3,2
rest in thumbs,17:45:23.009,29175,7721,3634,1674,1037,1551,852,1524,1463,896,958,2447,3572,29104,29184,29157,29192,29175,1379,1278,2623,1371,1898,2575,1164,1103,958,914,1524,1678,29175,29179,2147483647,64737,61,554,14437,1128,7636,64881,0,3,3,2
rest in thumbs,17:45:23.109,29192,7703,3621,1687,1001,1520,786,1494,1441,856,918,2452,3590,29131,29144,29175,29197,29157,1437,1270,2649,1419,1907,2562,1111,1107,953,918,1524,1665,29140,29170,2147483647,64738,74,547,14434,1121,7645,64883,0,3,3,2
rest in thumbs,17:45:23.208,29175,7690,3590,1669,993,1573,799,1542,1419,870,914,2460,3594,29126,29126,29162,29131,29153,1384,1278,2685,1441,1907,2570,1107,1142,971,914,1546,1683,29214,29188,2147483647,64734,67,549,14429,1112,7656,64889,0,3,3,2
rest in thumbs,17:45:23.309,29184,7725,3590,1687,975,1555,821,1542,1419,852,927,2434,3634,29170,29170,29135,29206,29179,1432,1265,2610,1423,1894,2605,1160,1125,962,905,1520,1687,29140,29192,2147483647,64723,76,547,14427,1114,7658,64902,0,3,3,2
rest in thumbs,17:45:23.409,29166,7760,3603,1683,1037,1538,817,1542,1437,843,958,2456,3616,29104,29140,29096,29157,29140,1415,1239,2649,1357,1907,2614,1107,1098,944,909,1524,1696,29118,29188,2147483647,64736,71,549,14422,1102,7672,64910,0,3,3,2
rest in thumbs,17:45:23.509,29170,7734,3546,1705,979,1546,791,1516,1428,865,953,2430,3581,29148,29144,29017,29113,29140,1445,1256,2654,1371,1911,2610,1142,1111,944,874,1529,1661,29104,29219,2147483647,64732,71,544,14416,1088,7685,64907,0,3,3,2
rest in thumbs,17:45:23.608,29197,7721,3590,1674,971,1560,791,1520,1410,861,949,2465,3612,29078,29131,29166,29061,29162,1450,1261,2619,1397,1841,2623,1133,1076,900,892,1511,1656,29131,29140,2147483647,64741,67,544,14414,1077,7689,64913,0,3,3,2
rest in thumbs,17:45:23.709,29140,7694,3555,1718,1023,1546,799,1511,1406,870,958,2408,3612,29131,29091,29104,29083,29126,1406,1305,2619,1362,1898,2575,1094,1094,927,874,1516,1656,29126,29148,2147483647,64739,69,550,14413,1076,7692,64915,0,3,3,2
rest in thumbs,17:45:23.809,29188,7734,3590,1665,1023,1573,777,1485,1410,874,922,2447,3603,29131,29087,29061,29065,29157,1410,1278,2645,1401,1876,2579,1125,1129,944,896,1551,1665,29061,29214,2147483647,64731,71,544,14413,1064,7693,64923,0,3,3,2
rest in thumbs,17:45:23.909,29140,7694,3594,1691,979,1568,808,1511,1419,874,944,2456,3585,29140,29162,29078,29122,29175,1388,1252,2610,1375,1894,2579,1125,1111,953,896,1516,1639,29126,29148,2147483647,64745,60,548,14416,1059,7687,64928,0,3,3,2
rest in thumbs,17:45:24.008,29201,7712,3612,1683,988,1573,782,1533,1423,896,918,2456,3599,29104,29118,29087,29069,29166,1393,1243,2605,1397,1880,2610,1129,1094,936,900,1507,1656,29144,29144,2147483647,64729,66,539,14417,1069,7685,64922,0,3,3,2
rest in thumbs,17:45:24.109,29175,7677,3550,1683,979,1555,812,1533,1498,892,966,2465,3616,29179,29210,29069,29100,29206,1423,1287,2667,1371,1898,2610,1120,1059,918,892,1533,1669,29047,29188,2147483647,64726,70,545,14416,1087,7685,64921,0,3,3,2
rest in thumbs,17:45:24.135,29210,7721,3590,1705,1006,1551,795,1520,1458,870,914,2465,3603,29126,29153,28995,29140,29122,1415,1300,2627,1384,1916,2562,1111,1138,927,861,1542,1705,29140,29206,2147483647,64735,69,550,14415,1089,7686,64919,0,3,3,2
rest in thumbs,17:45:24.232,29157,7729,3647,1687,1023,1573,826,1507,1428,865,944,2430,3599,29135,29148,29061,28990,29148,1423,1283,2645,1384,1916,2610,1125,1089,936,900,1538,1665,29100,29228,2147483647,64738,62,544,14415,1083,7687,64919,0,3,3,2
rest in thumbs,17:45:24.409,29179,7703,3572,1674,1006,1524,799,1542,1454,848,958,2430,3607,29118,29188,29087,29113,29118,1401,1300,2619,1379,1880,2575,1120,1125,944,931,1533,1674,29166,29214,2147483647,64729,67,547,14414,1090,7688,64917,0,3,3,2
rest in thumbs,17:45:24.509,29157,7690,3585,1709,1010,1595,782,1524,1441,861,936,2500,3581,29131,29083,29131,29131,29188,1401,1278,2641,1393,1916,2592,1111,1081,936,896,1516,1634,29188,29166,2147483647,64730,78,546,14415,1104,7683,64917,0,3,3,2
rest in thumbs,17:45:24.609,29184,7677,3563,1696,984,1604,843,1538,1410,856,975,2487,3625,29126,29166,29140,29126,29131,1388,1287,2627,1410,1867,2588,1155,1142,971,918,1524,1669,29236,29184,2147483647,64735,78,551,14416,1111,7681,64913,0,3,3,2
rest in thumbs,17:45:24.708,29091,7721,3607,1683,1006,1564,782,1551,1454,878,962,2469,3612,29069,29166,28946,29118,29113,1406,1291,2597,1423,1872,2610,1133,1067,944,874,1524,1634,29157,29179,2147483647,64733,70,543,14417,1112,7679,64907,0,3,3,2
rest in thumbs,17:45:24.809,29232,7694,3572,1696,958,1577,839,1507,1432,874,927,2478,3585,29078,29162,29069,29144,29214,1388,1239,2632,1384,1894,2570,1146,1098,931,922,1511,1674,29162,29210,2147483647,64737,67,548,14420,1114,7672,64901,0,3,3,2
rest in thumbs,17:45:24.835,29162,7703,3572,1705,1023,1551,799,1494,1432,870,944,2469,3607,29109,29140,29087,29003,29179,1415,1252,2601,1397,1894,2588,1138,1098,914,909,1582,1647,29113,29192,2147483647,64733,69,548,14422,1111,7668,64904,0,3,3,2
rest in thumbs,17:45:25.009,29170,7721,3537,1674,1023,1538,799,1551,1393,843,949,2452,3581,29074,29148,29087,29144,29166,1388,1261,2627,1384,1916,2623,1125,1151,979,914,1516,1740,29179,29184,2147483647,64736,68,543,14426,1103,7662,64900,0,3,3,2
thumbs to fist,17:45:25.108,29131,7716,3563,1709,1032,1564,791,1546,1428,874,931,2456,3660,29087,29104,28995,28973,29122,1406,1313,2605,1406,1867,2592,1125,1103,962,896,1546,1647,29122,29118,2147483647,64747,71,547,14430,1099,7655,64896,0,3,3,2
thumbs to fist,17:45:25.209,29126,7712,3550,1683,984,1538,764,1555,1445,883,944,2443,3612,29126,29100,29104,29148,29175,1410,1252,2619,1397,1894,2583,1138,1085,958,883,1542,1643,29157,29131,2147483647,64738,68,553,14432,1098,7651,64894,0,3,3,2
thumbs to fist,17:45:25.309,29096,7738,3612,1669,984,1538,764,1502,1388,839,988,2482,3607,29100,29109,29170,29104,29087,1406,1243,2597,1410,1872,2592,1116,1063,958,887,1524,1665,29078,29113,2147483647,64728,61,546,14437,1089,7644,64894,0,3,3,2
thumbs to fist,17:45:25.409,29135,7712,3572,1731,971,1573,817,1489,1450,870,927,2452,3590,29153,29175,29100,28999,29153,1445,1287,2632,1357,1902,2605,1129,1089,958,861,1538,1647,29113,29210,2147483647,64747,68,547,14435,1084,7646,64892,0,3,3,2
thumbs to fist,17:45:25.433,29074,7694,3533,1696,966,1573,791,1516,1432,839,936,2460,3634,29122,29148,28995,28964,29166,1371,1283,2614,1384,1898,2605,1155,1094,914,927,1524,1683,29118,29118,2147483647,64723,69,546,14437,1082,7643,64891,0,3,3,2
thumbs to fist,17:45:25.609,29170,7681,3581,1700,984,1621,791,1529,1454,870,927,2421,3616,29131,29153,29012,29021,29148,1415,1283,2645,1393,1858,2610,1151,1133,984,909,1538,1661,29188,29100,2147483647,64736,74,558,14442,1082,7635,64895,0,3,3,2
thumbs to fist,17:45:25.719,29157,7668,3506,1687,1006,1577,782,1546,1445,896,940,2491,3590,29100,29113,29131,29140,29113,1410,1252,2641,1371,1867,2605,1111,1133,953,892,1507,1652,29140,29131,2147483647,64740,75,559,14442,1083,7634,64900,0,3,3,2
thumbs to fist,17:45:25.808,29113,7734,3585,1722,966,1582,821,1516,1485,918,896,2425,3634,29166,29245,29245,29184,29293,1423,1261,2645,1375,1902,2605,1133,1120,944,861,1511,1713,29074,29118,2147483647,64742,66,550,14440,1083,7639,64900,0,3,3,2
thumbs to fist,17:45:25.909,29140,7703,3607,1709,988,1555,804,1538,1476,843,949,2500,3616,29135,29135,29091,29157,29113,1366,1283,2676,1375,1872,2597,1098,1125,927,914,1533,1683,29197,29148,2147483647,64736,70,551,14440,1082,7638,64900,0,3,3,2
thumbs to fist,17:45:26.009,29153,7725,3629,1691,1006,1586,799,1524,1423,861,949,2504,3656,29184,29153,29104,29148,29118,1445,1261,2689,1384,1894,2601,1138,1120,962,914,1533,1683,29113,29170,2147483647,64745,70,547,14442,1075,7636,64904,0,3,3,2
thumbs to fist,17:45:26.109,29162,7721,3603,1740,1019,1564,795,1542,1480,856,940,2562,3634,29135,29083,29162,29162,29131,1415,1287,2636,1419,1942,2583,1089,1067,900,843,1533,1705,29232,29135,2147483647,64730,68,551,14439,1067,7644,64909,0,3,3,2
thumbs to fist,17:45:26.208,29179,7738,3572,1691,1019,1564,878,1533,1445,870,931,2526,3603,29192,29091,29144,29157,29118,1410,1274,2667,1388,1880,2605,1111,1094,922,892,1529,1656,29166,29192,2147483647,64731,71,552,14431,1060,7660,64913,0,3,3,2
thumbs to fist,17:45:26.309,29188,7699,3550,1705,1037,1595,791,1494,1437,905,940,2557,3607,29197,29074,29113,29179,29091,1419,1278,2632,1379,1898,2601,1164,1103,966,940,1546,1652,29153,29223,2147483647,64744,68,546,14425,1053,7672,64917,0,3,3,2
thumbs to fist,17:45:26.409,29166,7708,3568,1683,1010,1582,808,1489,1450,861,958,2522,3603,29157,29148,29083,29166,29113,1441,1248,2623,1406,1894,2605,1125,1138,927,922,1507,1661,29135,29188,2147483647,64727,66,544,14422,1055,7678,64926,0,3,3,2
thumbs to fist,17:45:26.509,29157,7690,3590,1678,988,1577,786,1524,1428,852,953,2513,3607,29166,29083,29170,29148,29087,1401,1256,2619,1410,1907,2597,1107,1103,936,883,1538,1696,29228,29210,2147483647,64727,62,549,14418,1053,7687,64934,0,3,3,2
thumbs to fist,17:45:26.537,29219,7694,3577,1722,1006,1551,817,1524,1423,856,958,2522,3621,29162,29113,29166,29157,29122,1437,1261,2658,1388,1911,2632,1129,1138,949,905,1533,1669,29206,29179,2147483647,64743,65,551,14414,1050,7694,64934,0,3,3,2
thumbs to fist,17:45:26.634,29232,7659,3520,1687,1001,1516,821,1538,1472,848,940,2526,3643,29162,29118,29162,29188,29091,1445,1261,2619,1415,1898,2623,1125,1072,949,900,1529,1625,29197,29210,2147483647,64740,70,544,14412,1047,7700,64939,0,3,3,2
thumbs to fist,17:45:26.731,29197,7699,3563,1696,975,1608,834,1533,1454,874,927,2509,3660,29188,29096,29118,29153,29104,1423,1309,2619,1406,1894,2623,1182,1111,962,931,1529,1661,29219,29184,2147483647,64733,71,537,14414,1053,7695,64950,0,3,3,2
thumbs to fist,17:45:26.908,29175,7686,3585,1740,1045,1551,804,1542,1450,856,971,2513,3643,29109,29126,29170,29179,29131,1419,1274,2627,1375,1885,2627,1120,1107,949,909,1529,1665,29175,29210,2147483647,64731,68,540,14418,1068,7686,64960,0,3,3,2
thumbs to fist,17:45:26.933,29162,7699,3541,1683,988,1573,791,1494,1450,856,900,2557,3678,29162,29135,29104,29122,29175,1415,1265,2636,1349,1898,2579,1151,1142,940,887,1538,1678,29157,29192,2147483647,64736,71,551,14419,1080,7684,64965,0,3,3,2
thumbs to fist,17:45:27.109,29201,7699,3563,1709,966,1551,777,1529,1472,874,940,2540,3638,29148,29170,29140,29148,29091,1371,1256,2636,1415,1920,2592,1103,1094,931,892,1573,1696,29307,29214,2147483647,64732,72,551,14418,1083,7686,64963,0,3,3,2
thumbs to fist,17:45:27.209,29148,7677,3555,1665,1006,1560,791,1516,1445,878,927,2548,3621,29083,29100,29179,29157,29096,1406,1256,2645,1415,1907,2605,1111,1116,958,892,1564,1647,29219,29201,2147483647,64735,68,541,14419,1088,7684,64972,0,3,3,2
thumbs to fist,17:45:27.308,29201,7734,3577,1683,1010,1573,804,1516,1450,843,979,2504,3634,29104,29135,29131,29197,29140,1419,1274,2623,1375,1894,2610,1116,1081,940,909,1551,1674,29214,29179,2147483647,64735,73,547,14418,1092,7684,64981,0,3,3,2
thumbs to fist,17:45:27.409,29144,7729,3599,1718,1019,1520,799,1524,1463,865,944,2535,3581,29144,29126,29113,29184,29087,1379,1252,2623,1379,1889,2619,1089,1120,971,927,1502,1661,29175,29153,2147483647,64731,74,549,14418,1092,7684,64981,0,3,3,2
thumbs to fist,17:45:27.509,29210,7668,3594,1718,975,1551,812,1489,1463,883,962,2522,3638,29175,29074,29140,29140,29131,1406,1256,2658,1401,1880,2610,1155,1103,966,900,1529,1669,29122,29144,2147483647,64736,75,552,14421,1094,7678,64980,0,3,3,2
thumbs to fist,17:45:27.536,29162,7725,3559,1661,993,1564,782,1533,1441,870,975,2553,3629,29179,29113,29144,29170,29087,1437,1278,2627,1401,1889,2636,1111,1107,953,896,1542,1652,29179,29170,2147483647,64736,74,552,14424,1094,7674,64979,0,3,3,2
thumbs to fist,17:45:27.709,29241,7672,3484,1718,997,1595,812,1467,1410,834,900,2535,3616,29263,29140,29184,29148,29118,1458,1261,2619,1401,1894,2627,1098,1085,922,848,1533,1647,29184,29179,2147483647,64733,72,551,14424,1094,7674,64979,0,3,3,2
thumbs to fist,17:45:27.809,29153,7672,3555,1705,993,1564,760,1524,1410,830,944,2535,3599,29179,29074,29162,29126,29091,1415,1252,2623,1357,1894,2583,1142,1116,962,918,1529,1678,29122,29179,2147483647,64733,72,553,14424,1093,7673,64978,0,3,3,2
thumbs to fist,17:45:27.909,29197,7729,3572,1713,1001,1551,799,1533,1450,852,962,2513,3678,29188,29148,29184,29162,29104,1437,1274,2610,1366,1898,2597,1081,1107,984,914,1533,1669,29258,29223,2147483647,64733,75,551,14424,1093,7674,64978,0,3,3,2
thumbs to fist,17:45:28.009,29175,7708,3585,1709,1037,1577,812,1511,1393,905,953,2544,3647,29179,29126,29175,29113,29069,1428,1256,2623,1410,1907,2601,1107,1133,962,887,1555,1696,29210,29192,2147483647,64734,75,550,14425,1093,7672,64978,0,3,3,2
thumbs to fist,17:45:28.034,29219,7681,3568,1718,1001,1564,786,1533,1388,887,944,2509,3577,29210,29166,29118,29122,29118,1419,1274,2627,1393,1867,2605,1133,1098,975,900,1511,1678,29228,29192,2147483647,64737,69,552,14424,1092,7672,64977,0,3,3,2
thumbs to fist,17:45:28.134,29126,7725,3572,1683,958,1546,812,1458,1445,848,914,2500,3629,29184,29100,29140,29188,29083,1423,1278,2641,1371,1889,2605,1103,1081,962,883,1511,1665,29148,29166,2147483647,64742,70,548,14425,1091,7671,64974,0,3,3,2
thumbs to fist,17:45:28.309,29184,7690,3599,1713,1010,1555,821,1507,1437,834,922,2540,3647,29201,29100,29184,29179,29113,1441,1278,2623,1388,1867,2579,1146,1098,927,887,1538,1687,29236,29214,2147483647,64732,69,551,14424,1090,7673,64975,0,3,3,2
thumbs to fist,17:45:28.408,29144,7703,3594,1735,1015,1546,812,1524,1454,914,936,2487,3638,29219,29148,29170,29166,29118,1393,1287,2671,1393,1924,2605,1146,1103,953,887,1516,1661,29201,29126,2147483647,64733,69,554,14420,1091,7681,64976,0,3,3,2
thumbs to fist,17:45:28.509,29166,7708,3607,1705,1028,1586,834,1498,1423,856,936,2531,3612,29254,29109,29153,29175,29144,1393,1283,2632,1406,1863,2619,1151,1116,975,870,1502,1683,29206,29175,2147483647,64734,69,548,14412,1087,7697,64979,0,3,3,2
thumbs to fist,17:45:28.609,29210,7743,3647,1727,1006,1564,795,1520,1410,870,927,2518,3647,29166,29140,29144,29118,29153,1423,1287,2627,1401,1902,2610,1151,1120,962,922,1529,1683,29157,29179,2147483647,64736,73,545,14409,1078,7704,64985,0,3,3,2
thumbs to fist,17:45:28.634,29148,7725,3577,1749,1001,1555,804,1520,1423,861,914,2496,3673,29228,29144,29122,29162,29148,1406,1256,2619,1353,1894,2592,1160,1107,944,856,1573,1687,29140,29135,2147483647,64733,72,554,14404,1077,7713,64988,0,3,3,2
thumbs to fist,17:45:28.809,29188,7690,3590,1740,1045,1577,830,1507,1410,865,936,2478,3629,29201,29091,29144,29140,29109,1388,1313,2641,1437,1880,2610,1129,1125,962,878,1542,1691,29113,29126,2147483647,64728,65,552,14400,1071,7723,64995,0,3,3,2
thumbs to fist,17:45:28.909,29157,7729,3590,1735,1010,1590,799,1511,1419,874,931,2491,3599,29223,29096,29135,29157,29170,1388,1274,2671,1393,1885,2614,1116,1085,949,896,1502,1696,29175,29192,2147483647,64730,64,542,14399,1050,7726,64991,0,3,3,2
thumbs to fist,17:45:28.933,29219,7721,3590,1731,997,1551,782,1485,1419,852,918,2509,3651,29254,29162,29140,29162,29148,1406,1270,2636,1371,1876,2601,1103,1063,984,852,1538,1687,29184,29179,2147483647,64729,66,544,14397,1032,7732,64993,0,3,3,2
thumbs to fist,17:45:29.109,29179,7703,3607,1691,1015,1573,777,1511,1432,861,975,2491,3607,29170,29166,29135,29179,29153,1450,1252,2605,1393,1894,2614,1164,1094,931,887,1498,1696,29162,29179,2147483647,64735,66,541,14401,1013,7729,64998,0,3,3,2
thumbs to fist,17:45:29.209,29157,7681,3581,1705,971,1582,786,1489,1450,878,940,2535,3665,29175,29131,29091,29166,29131,1415,1230,2601,1393,1850,2566,1116,1111,949,900,1507,1687,29135,29131,2147483647,64737,66,542,14402,1004,7727,64998,0,3,3,2
thumbs to fist,17:45:29.309,29153,7655,3555,1757,1001,1555,808,1502,1419,896,927,2478,3651,29232,29179,29065,29113,29188,1410,1270,2614,1401,1854,2645,1133,1111,936,870,1533,1669,29074,29153,2147483647,64732,71,546,14403,996,7726,64999,0,3,3,2
thumbs to fist,17:45:29.409,29219,7690,3572,1691,1001,1599,834,1546,1397,861,944,2482,3643,29192,29131,29170,29179,29148,1441,1274,2619,1401,1894,2605,1142,1120,953,878,1542,1652,29184,29254,2147483647,64737,63,542,14409,995,7715,65000,0,3,3,2
thumbs to fist,17:45:29.509,29166,7624,3612,1700,993,1560,804,1511,1406,834,966,2482,3612,29223,29153,29135,29113,29109,1450,1265,2614,1388,1902,2627,1116,1098,918,878,1529,1656,29223,29166,2147483647,64729,70,552,14415,1006,7704,64996,0,3,3,2
thumbs to fist,17:45:29.609,29144,7677,3533,1687,1006,1564,799,1538,1454,830,914,2518,3616,29245,29157,29153,29175,29144,1401,1265,2619,1419,1867,2636,1085,1085,953,905,1529,1687,29192,29175,2147483647,64728,64,540,14415,1006,7703,64994,0,3,3,2
thumbs to fist,17:45:29.709,29166,7668,3533,1705,940,1555,777,1551,1445,883,940,2478,3616,29170,29113,29140,29091,29091,1423,1265,2645,1379,1902,2627,1142,1098,936,900,1516,1687,29135,29201,2147483647,64734,65,546,14416,1007,7700,64990,0,3,3,2
thumbs to fist,17:45:29.809,29206,7650,3541,1678,1037,1564,782,1511,1428,839,979,2430,3638,29223,29144,29113,29148,29126,1401,1248,2614,1388,1858,2632,1160,1072,940,905,1502,1665,29100,29201,2147483647,64735,69,543,14418,1017,7695,64986,0,3,3,2
thumbs to fist,17:45:29.909,29166,7646,3506,1696,1028,1586,773,1485,1410,874,927,2482,3577,29170,29131,29126,29074,29175,1397,1261,2623,1388,1863,2636,1072,1081,949,887,1524,1647,29118,29179,2147483647,64723,72,545,14419,1029,7692,64991,0,3,3,2
thumbs to fist,17:45:30.009,29162,7642,3555,1678,997,1560,804,1555,1450,852,940,2487,3581,29153,29131,29091,29113,29118,1423,1239,2605,1393,1863,2641,1103,1076,931,909,1507,1669,29113,29188,2147483647,64731,68,548,14420,1030,7689,64991,0,3,3,2
rest in fist,17:45:30.109,29148,7694,3577,1696,1015,1546,782,1507,1384,812,931,2465,3612,29153,29104,29069,29074,29153,1406,1261,2636,1335,1876,2570,1155,1098,936,848,1551,1656,29140,29170,2147483647,64736,72,546,14421,1030,7688,64991,0,3,3,2
rest in fist,17:45:30.209,29280,7672,3555,1705,975,1582,817,1494,1393,896,966,2465,3599,29153,29144,29122,29096,29126,1401,1278,2614,1437,1876,2597,1111,1107,962,900,1498,1713,29188,29263,2147483647,64736,68,550,14422,1029,7686,64989,0,3,3,2
rest in fist,17:45:30.309,29219,7659,3524,1744,988,1568,839,1476,1463,852,958,2478,3607,29223,29122,29061,29056,29109,1397,1270,2597,1432,1863,2627,1125,1085,962,887,1524,1683,29144,29175,2147483647,64734,71,552,14424,1035,7682,64989,0,3,3,2
rest in fist,17:45:30.409,29214,7646,3594,1727,1001,1551,716,1524,1410,865,949,2482,3621,29236,29157,29087,29109,29201,1432,1261,2610,1397,1894,2566,1129,1085,944,900,1524,1669,29236,29223,2147483647,64731,70,551,14427,1034,7677,64989,0,3,3,2
rest in fist,17:45:30.509,29192,7668,3559,1744,1019,1568,799,1546,1401,848,949,2487,3643,29201,29157,29144,29100,29144,1441,1283,2610,1393,1850,2592,1125,1063,940,922,1538,1634,29140,29210,2147483647,64733,68,545,14426,1029,7678,64987,0,3,3,2
rest in fist,17:45:30.539,29245,7672,3568,1700,988,1520,808,1529,1415,839,949,2452,3669,29228,29179,29109,29144,29162,1445,1243,2645,1415,1854,2619,1120,1098,966,883,1533,1674,29122,29228,2147483647,64736,69,552,14427,1028,7678,64988,0,3,3,2
rest in fist,17:45:30.719,29210,7681,3568,1691,931,1551,729,1511,1441,896,922,2474,3607,29210,29175,29012,29065,29131,1441,1283,2623,1375,1850,2623,1138,1103,922,914,1524,1700,29140,29201,2147483647,64732,71,551,14426,1034,7678,64985,0,3,3,2
rest in fist,17:45:30.745,29157,7664,3541,1691,975,1573,821,1533,1432,883,997,2478,3524,29223,29232,29201,29223,29157,1415,1252,2610,1397,1929,2641,1146,1089,953,900,1538,1678,29091,29175,2147483647,64734,64,551,14425,1034,7680,64985,0,3,3,2
rest in fist,17:45:30.834,29184,7677,3541,1718,1015,1551,804,1516,1401,856,940,2504,3594,29201,29175,29109,29100,29206,1419,1291,2614,1428,1885,2610,1138,1076,940,834,1529,1700,29153,29232,2147483647,64734,70,552,14423,1034,7685,64985,0,3,3,2
rest in fist,17:45:31.010,29184,7694,3590,1709,1015,1555,843,1507,1432,892,936,2496,3629,29219,29122,29153,29144,29140,1406,1278,2654,1393,1920,2632,1146,1142,927,883,1516,1691,29179,29162,2147483647,64736,62,550,14423,1031,7685,64986,0,3,3,2
rest in fist,17:45:31.109,29197,7699,3585,1749,1015,1586,795,1542,1419,861,940,2509,3625,29197,29069,29087,29126,29078,1384,1270,2641,1415,1920,2583,1129,1094,922,918,1533,1634,29192,29210,2147483647,64731,68,550,14422,1032,7687,64990,0,3,3,2
rest in fist,17:45:31.134,29175,7716,3533,1696,984,1577,786,1511,1432,900,971,2425,3581,29188,29188,29109,29148,29162,1401,1296,2605,1397,1867,2570,1142,1081,936,909,1542,1630,29144,29201,2147483647,64735,69,550,14418,1032,7695,64991,0,3,3,2
rest in fist,17:45:31.309,29280,7668,3594,1674,1037,1551,812,1520,1450,870,914,2474,3599,29188,29140,29100,29074,29157,1379,1270,2641,1384,1907,2632,1107,1063,953,918,1542,1678,29166,29236,2147483647,64737,68,553,14415,1031,7699,64992,0,3,3,2
rest in fist,17:45:31.409,29192,7681,3559,1753,997,1546,791,1511,1428,861,914,2469,3621,29201,29166,29157,29104,29192,1401,1270,2614,1379,1920,2610,1133,1111,953,865,1546,1661,29144,29250,2147483647,64731,71,545,14415,1028,7700,64994,0,3,3,2
rest in fist,17:45:31.509,29135,7668,3506,1718,1023,1555,817,1520,1507,883,918,2509,3594,29201,29184,29135,29153,29162,1401,1274,2588,1379,1876,2632,1116,1129,1001,861,1533,1674,29091,29126,2147483647,64733,70,544,14413,1025,7705,64996,0,3,3,2
rest in fist,17:45:31.609,29206,7694,3563,1713,1023,1564,777,1494,1489,843,944,2474,3616,29179,29245,29078,29100,29228,1401,1283,2641,1371,1872,2610,1138,1125,940,896,1516,1674,29100,29197,2147483647,64739,68,548,14409,1024,7712,64997,0,3,3,2
rest in fist,17:45:31.729,29236,7655,3533,1705,1006,1577,769,1520,1423,865,958,2482,3616,29219,29184,29170,29131,29206,1419,1265,2636,1371,1841,2579,1072,1120,922,927,1507,1634,29223,29206,2147483647,64737,69,542,14408,1017,7714,65001,0,3,3,2
rest in fist,17:45:31.809,29219,7721,3550,1665,1023,1555,799,1520,1454,865,936,2478,3643,29179,29166,29039,29166,29131,1415,1230,2605,1406,1898,2588,1111,1116,953,900,1560,1678,29148,29192,2147483647,64731,70,545,14405,1018,7721,65004,0,3,3,2
rest in fist,17:45:31.909,29250,7664,3520,1709,984,1542,799,1524,1437,856,971,2535,3629,29219,29210,29126,29109,29153,1432,1265,2601,1353,1845,2632,1138,1103,944,870,1533,1705,29144,29223,2147483647,64736,59,546,14404,1020,7723,65008,0,3,3,2
rest in fist,17:45:31.935,29206,7699,3612,1718,1010,1582,826,1511,1428,839,940,2469,3629,29175,29192,29144,29166,29197,1388,1291,2610,1366,1898,2605,1098,1045,922,878,1489,1687,29197,29210,2147483647,64732,72,542,14403,1018,7725,65009,0,3,3,2
rest in fist,17:45:32.032,29219,7686,3555,1709,971,1551,764,1516,1410,870,927,2478,3638,29201,29184,29162,29153,29188,1397,1252,2641,1393,1836,2557,1116,1103,953,918,1507,1661,29223,29214,2147483647,64738,72,542,14403,1020,7726,65012,0,3,3,2
rest in fist,17:45:32.209,29140,7650,3520,1674,1028,1560,777,1467,1393,892,940,2452,3625,29166,29223,29175,29118,29175,1406,1278,2605,1393,1867,2592,1107,1107,940,909,1507,1674,29206,29223,2147483647,64727,64,550,14404,1028,7723,65017,0,3,3,2
rest in fist,17:45:32.309,29214,7637,3537,1735,1015,1573,786,1485,1458,848,900,2491,3647,29162,29219,29126,29210,29206,1397,1256,2619,1379,1889,2632,1155,1129,966,878,1533,1665,29162,29206,2147483647,64730,65,557,14404,1032,7721,65015,0,3,3,2
rest in fist,17:45:32.337,29166,7668,3515,1727,997,1551,742,1520,1393,848,922,2416,3651,29267,29188,29113,29113,29197,1410,1270,2588,1423,1924,2605,1103,1085,940,909,1538,1652,29131,29206,2147483647,64732,67,552,14404,1032,7721,65015,0,3,3,2
rest in fist,17:45:32.529,29258,7659,3555,1687,975,1564,817,1494,1410,874,979,2438,3612,29228,29250,29175,29179,29214,1428,1296,2592,1401,1911,2601,1107,1072,975,883,1494,1652,29126,29201,2147483647,64734,72,547,14404,1032,7721,65015,0,3,3,2
rest in fist,17:45:32.609,29184,7655,3524,1687,1028,1560,821,1524,1419,861,940,2474,3643,29166,29100,29113,29175,29113,1397,1283,2605,1384,1832,2610,1120,1103,892,900,1529,1691,29201,29201,2147483647,64737,73,551,14404,1032,7721,65014,0,3,3,2
rest in fist,17:45:32.709,29170,7655,3511,1696,997,1586,760,1516,1432,856,949,2438,3616,29245,29250,29179,29135,29214,1393,1270,2583,1419,1845,2632,1111,1103,962,878,1520,1669,29254,29192,2147483647,64737,62,545,14406,1033,7719,65016,0,3,3,2
rest in fist,17:45:32.809,29153,7699,3563,1696,993,1564,795,1507,1437,839,936,2460,3643,29223,29148,29131,29210,29201,1384,1252,2619,1406,1858,2658,1107,1054,918,896,1524,1665,29192,29201,2147483647,64738,66,550,14406,1033,7718,65016,0,3,3,2
rest in fist,17:45:32.838,29206,7664,3541,1691,1001,1573,795,1502,1406,839,953,2438,3607,29289,29214,29197,29148,29241,1437,1252,2632,1410,1889,2592,1120,1085,953,887,1498,1683,29188,29228,2147483647,64734,66,550,14405,1034,7719,65015,0,3,3,2
rest in fist,17:45:33.009,29170,7668,3550,1683,988,1560,742,1516,1423,852,936,2452,3616,29280,29214,29188,29179,29179,1401,1270,2614,1397,1911,2641,1129,1103,958,909,1529,1639,29179,29166,2147483647,64736,67,548,14410,1033,7710,65015,0,3,3,2
rest in fist,17:45:33.109,29206,7664,3541,1731,1015,1564,795,1529,1388,848,944,2474,3687,29250,29250,29170,29192,29232,1428,1287,2583,1375,1889,2610,1120,1076,953,861,1533,1678,29258,29188,2147483647,64734,67,551,14413,1033,7705,65014,0,3,3,2
rest in fist,17:45:33.209,29166,7646,3541,1669,997,1586,795,1516,1397,874,931,2474,3643,29293,29175,29162,29188,29179,1410,1300,2619,1393,1872,2597,1103,1107,962,905,1516,1647,29069,29179,2147483647,64731,64,548,14412,1033,7707,65014,0,3,3,2
rest in fist,17:45:33.309,29140,7672,3577,1700,1045,1560,808,1520,1419,826,918,2465,3695,29271,29206,29206,29166,29184,1410,1256,2575,1388,1898,2579,1138,1103,979,887,1533,1625,29179,29197,2147483647,64735,66,551,14411,1033,7708,65015,0,3,3,2
rest in fist,17:45:33.409,29245,7686,3546,1705,958,1564,812,1507,1432,843,953,2469,3634,29210,29210,29113,29140,29197,1423,1248,2605,1410,1850,2553,1142,1111,971,870,1546,1665,29074,29188,2147483647,64736,66,555,14412,1033,7706,65014,0,3,3,2
rest in fist,17:45:33.438,29096,7708,3585,1683,1010,1560,812,1485,1467,839,918,2531,3559,29206,29214,29170,29153,29201,1415,1274,2605,1401,1885,2605,1094,1116,953,922,1533,1652,28981,29201,2147483647,64732,64,546,14412,1031,7707,65015,0,3,3,2
rest in fist,17:45:33.536,29201,7672,3524,1687,1010,1551,777,1546,1401,821,936,2452,3638,29219,29210,29144,29184,29245,1428,1243,2614,1375,1894,2623,1138,1103,936,900,1555,1683,29113,29192,2147483647,64732,63,550,14411,1031,7709,65016,0,3,3,2
rest in fist,17:45:33.634,29232,7655,3537,1722,997,1568,773,1533,1441,830,922,2491,3616,29245,29210,29184,29188,29250,1397,1278,2641,1349,1894,2623,1146,1085,958,874,1542,1691,29162,29228,2147483647,64738,65,548,14408,1032,7714,65016,0,3,3,2
rest in fist,17:45:33.732,29219,7668,3555,1718,1037,1590,786,1520,1415,856,966,2447,3643,29214,29179,29135,29148,29228,1415,1252,2623,1410,1876,2619,1107,1120,975,874,1507,1652,29148,29228,2147483647,64731,70,544,14407,1028,7716,65016,0,3,3,2
rest in fist,17:45:33.841,29113,7650,3559,1727,971,1546,808,1498,1498,878,979,2491,3638,29241,29206,29131,29140,29206,1423,1252,2592,1388,1933,2623,1142,1129,971,878,1494,1669,29091,29109,2147483647,64729,62,545,14410,1019,7712,65014,0,3,3,2
rest in fist,17:45:34.009,29175,7646,3559,1727,988,1560,782,1489,1437,883,922,2456,3643,29223,29250,29061,29104,29175,1379,1283,2641,1362,1828,2654,1081,1094,940,892,1511,1617,29157,29241,2147483647,64735,64,551,14410,1008,7713,65013,0,3,3,2
rest in fist,17:45:34.109,29157,7624,3621,1696,997,1599,791,1520,1393,874,922,2447,3647,29271,29219,29144,29153,29188,1419,1274,2654,1397,1828,2627,1094,1103,949,927,1538,1691,29091,29170,2147483647,64729,64,545,14410,995,7715,65014,0,3,3,2
rest in fist,17:45:34.209,29197,7642,3537,1696,971,1538,786,1533,1432,821,953,2482,3568,29276,29162,29140,29157,29184,1432,1226,2610,1401,1832,2627,1089,1133,958,883,1494,1639,29087,29214,2147483647,64734,66,547,14411,984,7716,65016,0,3,3,2
rest in fist,17:45:34.309,29175,7650,3541,1713,993,1533,764,1507,1419,852,931,2456,3647,29206,29188,29113,29153,29188,1415,1256,2636,1366,1819,2605,1146,1081,892,878,1533,1665,28981,29228,2147483647,64735,61,541,14410,974,7717,65019,0,3,3,2
rest in fist,17:45:34.409,29197,7633,3541,1687,993,1542,786,1516,1437,856,949,2452,3581,29245,29223,29197,29197,29250,1384,1270,2627,1410,1832,2588,1107,1142,984,905,1520,1647,29052,29258,2147483647,64734,64,541,14412,965,7716,65021,0,3,3,2
rest in fist,17:45:34.509,29188,7672,3559,1669,997,1599,795,1533,1419,848,927,2452,3625,29201,29214,29170,29162,29201,1432,1283,2605,1401,1792,2579,1098,1085,958,892,1502,1696,28977,29184,2147483647,64738,62,544,14412,955,7716,65023,0,3,3,2
rest in fist,17:45:34.609,29228,7690,3550,1700,988,1511,791,1524,1401,834,905,2460,3660,29228,29197,29197,29206,29188,1388,1256,2597,1388,1823,2583,1085,1072,962,878,1498,1687,29100,29184,2147483647,64732,70,544,14412,952,7718,65022,0,3,3,2
rest in fist,17:45:34.710,29228,7646,3515,1735,1050,1568,821,1533,1393,865,922,2478,3607,29223,29241,29140,29118,29201,1419,1300,2645,1384,1854,2641,1138,1072,949,896,1520,1652,29091,29192,2147483647,64738,63,554,14415,955,7712,65031,0,3,3,2
rest in fist,17:45:34.735,29236,7624,3515,1713,953,1551,791,1564,1428,892,944,2443,3625,29219,29210,29184,29157,29250,1428,1278,2597,1379,1832,2605,1125,1085,927,883,1551,1705,28959,29188,2147483647,64726,60,545,14419,967,7704,65038,0,3,3,2
rest in fist,17:45:34.835,29197,7628,3537,1696,1006,1555,821,1551,1406,865,936,2496,3603,29241,29184,29148,29118,29170,1393,1239,2570,1357,1836,2583,1120,1085,949,878,1502,1625,29109,29197,2147483647,64733,62,545,14418,973,7705,65036,0,3,3,2
fist to thumbs,17:45:35.009,29047,7628,3546,1731,1032,1577,786,1498,1445,874,953,2482,3616,29206,29214,29100,29113,29267,1458,1296,2649,1344,1885,2623,1142,1089,944,905,1529,1678,29166,29078,2147483647,64738,76,550,14418,973,7704,65034,0,3,3,2
fist to thumbs,17:45:35.120,29126,7668,3559,1740,979,1538,799,1538,1432,874,962,2438,3634,29219,29179,29170,29144,29201,1423,1270,2597,1327,1850,2614,1125,1103,993,892,1529,1661,29021,29175,2147483647,64735,66,538,14419,974,7702,65033,0,3,3,2
fist to thumbs,17:45:35.143,29166,7646,3524,1735,997,1599,812,1546,1432,874,984,2447,3629,29241,29201,29135,29192,29179,1406,1239,2645,1353,1876,2575,1098,1085,988,834,1546,1687,29148,29113,2147483647,64738,67,544,14420,976,7701,65032,0,3,3,2
fist to thumbs,17:45:35.309,29192,7677,3541,1735,1001,1546,826,1529,1445,874,927,2474,3643,29219,29271,29148,29126,29228,1362,1305,2592,1371,1845,2627,1120,1094,958,878,1520,1674,29118,29210,2147483647,64734,66,547,14421,978,7698,65031,0,3,3,2
fist to thumbs,17:45:35.333,29184,7694,3515,1740,1041,1560,773,1546,1410,905,918,2456,3656,29219,29184,29232,29184,29228,1423,1296,2614,1397,1863,2614,1098,1111,931,892,1516,1669,29113,29170,2147483647,64733,60,549,14421,982,7698,65029,0,3,3,2
fist to thumbs,17:45:35.509,29175,7646,3546,1718,997,1555,782,1520,1410,830,944,2465,3572,29184,29170,29175,29157,29166,1397,1270,2597,1388,1889,2597,1116,1107,944,870,1502,1678,29096,29179,2147483647,64734,68,544,14421,982,7698,65029,0,3,3,2
fist to thumbs,17:45:35.619,29223,7686,3537,1727,1006,1560,826,1524,1415,874,931,2425,3585,29201,29228,29214,29241,29214,1410,1256,2614,1406,1836,2592,1120,1076,922,883,1520,1683,29025,29184,2147483647,64738,66,552,14421,982,7698,65028,0,3,3,2
fist to thumbs,17:45:35.709,29100,7672,3546,1683,997,1568,769,1502,1485,865,927,2456,3625,29232,29170,29166,29197,29170,1432,1256,2605,1379,1845,2588,1151,1067,940,927,1533,1674,29148,29118,2147483647,64737,63,548,14421,982,7697,65028,0,3,3,2
fist to thumbs,17:45:35.810,29184,7642,3559,1740,984,1542,760,1546,1476,856,984,2469,3603,29223,29228,29192,29184,29219,1401,1283,2619,1393,1819,2601,1142,1116,962,883,1520,1687,29078,29166,2147483647,64732,67,550,14421,982,7697,65028,0,3,3,2
fist to thumbs,17:45:35.909,29179,7668,3555,1709,984,1546,773,1542,1432,870,905,2456,3621,29175,29214,29236,29263,29188,1393,1287,2610,1384,1889,2614,1120,1063,966,883,1516,1687,28977,29201,2147483647,64732,64,549,14420,982,7699,65028,0,3,3,2
fist to thumbs,17:45:36.009,29219,7650,3550,1691,984,1564,817,1467,1384,874,949,2416,3634,29219,29228,29192,29214,29228,1401,1256,2636,1393,1885,2601,1094,1028,958,892,1502,1683,28999,29184,2147483647,64732,65,549,14420,982,7699,65028,0,3,3,2
fist to thumbs,17:45:36.109,29223,7672,3568,1665,1023,1599,812,1533,1423,883,975,2430,3612,29135,29153,29236,29184,29153,1401,1261,2623,1371,1845,2610,1107,1129,944,900,1524,1687,29061,29201,2147483647,64737,66,544,14422,982,7697,65028,0,3,3,2
fist to thumbs,17:45:36.210,29175,7681,3559,1696,1028,1577,791,1524,1419,874,944,2487,3616,29228,29250,29254,29228,29201,1423,1283,2583,1388,1845,2614,1107,1072,958,887,1520,1656,29025,29162,2147483647,64737,65,551,14427,983,7686,65026,0,3,3,2
fist to thumbs,17:45:36.309,29184,7721,3511,1731,1019,1573,799,1524,1415,870,936,2478,3599,29170,29192,29197,29197,29219,1419,1287,2645,1375,1841,2570,1111,1063,975,883,1529,1674,29065,29197,2147483647,64732,61,550,14427,986,7686,65025,0,3,3,2
fist to thumbs,17:45:36.409,29148,7655,3533,1705,1028,1595,804,1542,1428,808,918,2460,3629,29144,29250,29228,29206,29228,1393,1278,2649,1419,1836,2597,1111,1111,958,900,1551,1652,28937,29135,2147483647,64740,61,556,14423,987,7693,65026,0,3,3,2
fist to thumbs,17:45:36.509,29162,7659,3568,1678,1023,1577,777,1520,1428,887,953,2491,3678,29223,29236,29232,29175,29214,1415,1270,2636,1419,1863,2601,1146,1116,931,900,1533,1678,29025,29245,2147483647,64737,67,547,14420,992,7698,65025,0,3,3,2
fist to thumbs,17:45:36.610,29144,7637,3559,1652,1028,1586,821,1520,1450,865,958,2452,3612,29188,29140,29140,29254,29201,1441,1265,2649,1357,1836,2614,1111,1120,918,922,1507,1656,28955,29153,2147483647,64732,71,547,14413,993,7710,65029,0,3,3,2
fist to thumbs,17:45:36.709,29214,7584,3581,1722,1010,1555,812,1489,1480,817,944,2478,3651,29214,29179,29210,29250,29197,1415,1278,2597,1371,1845,2614,1094,1076,944,909,1489,1656,29047,29232,2147483647,64731,63,544,14411,989,7716,65033,0,3,3,2
fist to thumbs,17:45:36.735,29140,7624,3577,1691,988,1582,826,1502,1423,861,949,2460,3651,29175,29188,29197,29162,29210,1415,1283,2645,1388,1867,2605,1142,1116,962,870,1511,1643,28946,29184,2147483647,64729,65,539,14406,987,7726,65034,0,3,3,2
fist to thumbs,17:45:36.833,29179,7655,3581,1705,966,1546,782,1538,1437,878,927,2531,3660,29188,29192,29206,29219,29206,1401,1265,2592,1375,1876,2619,1116,1098,936,883,1516,1652,28999,29214,2147483647,64737,62,544,14402,985,7733,65036,0,3,3,2
fist to thumbs,17:45:37.009,29170,7567,3537,1709,1001,1590,777,1502,1463,817,936,2430,3599,29241,29210,29214,29188,29175,1401,1309,2597,1419,1819,2641,1111,1063,931,922,1524,1665,28959,29162,2147483647,64730,62,539,14401,985,7736,65036,0,3,3,2
fist to thumbs,17:45:37.033,29201,7703,3533,1656,1015,1577,764,1472,1432,900,936,2474,3638,29258,29263,29214,29228,29280,1379,1309,2623,1419,1828,2601,1098,1072,953,905,1538,1665,29061,29210,2147483647,64732,61,546,14401,985,7735,65036,0,3,3,2
fist to thumbs,17:45:37.133,29197,7628,3484,1713,1010,1546,786,1502,1458,830,909,2474,3651,29192,29245,29206,29206,29236,1432,1248,2645,1393,1784,2592,1103,1085,949,949,1485,1669,29043,29241,2147483647,64735,68,546,14400,984,7737,65036,0,3,3,2
fist to thumbs,17:45:37.310,29223,7694,3506,1674,1010,1590,834,1494,1441,826,936,2487,3616,29214,29201,29192,29250,29206,1437,1265,2610,1397,1845,2619,1133,1111,927,878,1546,1678,29118,29228,2147483647,64741,62,548,14401,975,7735,65034,0,3,3,2
fist to thumbs,17:45:37.409,29197,7659,3541,1705,1028,1564,830,1502,1485,870,944,2522,3656,29188,29267,29210,29166,29276,1393,1274,2614,1423,1841,2592,1076,1125,971,909,1507,1643,29126,29214,2147483647,64731,64,553,14403,976,7733,65037,0,3,3,2
fist to thumbs,17:45:37.432,29197,7620,3515,1674,997,1582,786,1511,1437,834,975,2504,3660,29197,29263,29228,29157,29263,1445,1252,2601,1432,1806,2597,1103,1085,940,905,1542,1696,29078,29210,2147483647,64731,62,527,14402,980,7734,65037,0,3,3,2
fist to thumbs,17:45:37.533,29157,7659,3533,1709,997,1568,812,1494,1428,856,900,2469,3647,29175,29271,29184,29228,29206,1379,1248,2641,1362,1819,2623,1098,1076,944,892,1524,1639,29083,29223,2147483647,64732,58,544,14402,980,7733,65037,0,3,3,2
fist to thumbs,17:45:37.710,29131,7664,3559,1678,993,1551,817,1494,1441,887,962,2482,3599,29188,29271,29166,29188,29258,1432,1248,2627,1401,1867,2588,1107,1116,927,874,1538,1674,29144,29166,2147483647,64731,63,544,14398,980,7741,65037,0,3,3,2
fist to thumbs,17:45:37.809,29074,7650,3484,1700,988,1568,786,1502,1437,861,900,2513,3638,29210,29241,29219,29219,29245,1379,1252,2627,1393,1841,2570,1111,1107,958,896,1533,1691,29162,29122,2147483647,64732,69,542,14397,980,7743,65037,0,3,3,2
fist to thumbs,17:45:37.840,29162,7602,3568,1683,979,1568,764,1498,1458,834,922,2491,3647,29021,29166,29131,29157,29223,1445,1265,2636,1388,1836,2627,1107,1072,953,861,1516,1630,29140,29104,2147483647,64734,63,548,14397,982,7743,65037,0,3,3,2
fist to thumbs,17:45:38.009,29144,7602,3546,1683,1001,1577,830,1485,1454,834,962,2513,3581,29201,29219,29179,29219,29219,1401,1278,2663,1410,1819,2636,1103,1081,944,887,1520,1652,29056,29144,2147483647,64722,64,547,14393,984,7750,65036,0,3,3,2
fist to thumbs,17:45:38.110,29109,7655,3577,1661,993,1524,799,1538,1458,874,940,2504,3656,29214,29223,29197,29206,29236,1472,1300,2632,1379,1841,2614,1120,1089,949,909,1520,1674,29118,29162,2147483647,64735,63,544,14394,984,7748,65036,0,3,3,2
fist to thumbs,17:45:38.209,29109,7650,3502,1661,1001,1573,777,1467,1476,852,949,2531,3656,29197,29250,29184,29184,29232,1437,1287,2570,1401,1828,2614,1120,1085,892,878,1551,1652,29069,29179,2147483647,64732,75,547,14394,987,7747,65034,0,3,3,2
fist to thumbs,17:45:38.309,29179,7699,3511,1700,988,1555,795,1472,1489,874,918,2504,3678,29153,29307,29184,29170,29289,1432,1305,2623,1335,1806,2601,1151,1094,922,887,1489,1647,29096,29201,2147483647,64729,60,541,14394,987,7747,65034,0,3,3,2
fist to thumbs,17:45:38.410,29201,7699,3541,1687,1028,1573,804,1485,1480,843,953,2531,3660,29175,29214,29184,29162,29188,1410,1265,2588,1419,1850,2605,1120,1098,936,892,1524,1674,29083,29157,2147483647,64730,64,545,14391,988,7753,65034,0,3,3,2
fist to thumbs,17:45:38.509,29078,7699,3537,1683,1015,1542,777,1463,1480,839,944,2509,3612,29166,29188,29166,29219,29214,1406,1256,2623,1388,1850,2605,1138,1116,953,892,1551,1647,29043,29087,2147483647,64735,55,541,14388,987,7759,65034,0,3,3,2
fist to thumbs,17:45:38.609,29074,7615,3533,1683,988,1555,812,1458,1419,843,927,2491,3638,29210,29219,29206,29219,29214,1437,1283,2658,1379,1832,2610,1142,1120,944,870,1538,1691,29043,29104,2147483647,64721,61,539,14388,989,7758,65033,0,3,3,2
fist to thumbs,17:45:38.634,29118,7646,3520,1691,958,1568,795,1502,1450,861,927,2504,3603,29232,29254,29192,29219,29223,1410,1318,2641,1410,1845,2566,1116,1111,949,861,1494,1652,29025,28973,2147483647,64726,62,541,14385,993,7762,65031,0,3,3,2
fist to thumbs,17:45:38.810,29091,7686,3590,1705,984,1582,786,1489,1432,826,914,2513,3678,29245,29258,29170,29184,29223,1410,1248,2610,1362,1836,2619,1146,1116,940,892,1516,1656,29166,29047,2147483647,64734,63,542,14384,993,7766,65031,0,3,3,2
fist to thumbs,17:45:38.909,29091,7699,3581,1678,1010,1586,817,1516,1419,865,966,2531,3660,29223,29241,29197,29206,29236,1441,1318,2632,1340,1863,2605,1133,1116,966,900,1529,1674,29118,28999,2147483647,64738,62,542,14382,994,7769,65033,0,3,3,2
fist to thumbs,17:45:39.009,29061,7751,3599,1678,1037,1582,777,1533,1432,830,966,2570,3638,29184,29206,29214,29228,29206,1423,1318,2627,1406,1797,2601,1120,1098,922,918,1538,1669,29135,29166,2147483647,64730,70,543,14378,1009,7774,65042,0,3,3,2
fist to thumbs,17:45:39.109,29109,7690,3621,1687,1001,1546,812,1502,1472,892,931,2504,3607,29214,29201,29210,29201,29263,1454,1291,2623,1393,1845,2641,1125,1129,953,887,1533,1639,29162,28995,2147483647,64725,66,538,14382,1002,7768,65045,0,3,3,2
fist to thumbs,17:45:39.136,29069,7738,3577,1691,1010,1560,764,1533,1441,878,936,2540,3665,29201,29206,29232,29250,29232,1406,1305,2588,1379,1885,2619,1133,1133,958,931,1520,1661,29144,29039,2147483647,64732,63,546,14381,996,7771,65043,0,3,3,2
fist to thumbs,17:45:39.235,29122,7694,3634,1705,993,1555,777,1524,1445,856,892,2526,3647,29197,29192,29214,29219,29263,1393,1309,2641,1419,1867,2636,1111,1076,944,861,1529,1634,29104,29047,2147483647,64729,64,543,14385,988,7764,65044,0,3,3,2
fist to thumbs,17:45:39.409,29052,7738,3638,1709,1023,1573,777,1560,1441,896,975,2491,3634,29188,29223,29210,29179,29188,1441,1274,2601,1406,1850,2632,1094,1072,971,905,1533,1665,29087,29083,2147483647,64721,67,538,14387,982,7762,65043,0,3,3,2
fist to thumbs,17:45:39.433,29021,7734,3629,1687,997,1577,804,1551,1441,905,909,2513,3625,29219,29201,29192,29210,29184,1397,1287,2623,1406,1863,2627,1125,1160,940,887,1507,1656,29126,29148,2147483647,64730,64,536,14390,977,7756,65041,0,3,3,2
fist to thumbs,17:45:39.544,29223,7769,3621,1687,993,1560,817,1573,1485,852,931,2531,3651,29118,29223,29241,29236,29206,1423,1296,2610,1384,1854,2597,1133,1107,905,892,1533,1656,29201,29184,2147483647,64724,64,538,14389,970,7760,65042,0,3,3,2
fist to thumbs,17:45:39.637,29025,7729,3660,1696,997,1564,799,1564,1445,856,931,2482,3651,29162,29188,29192,29153,29192,1458,1318,2575,1375,1850,2597,1151,1072,944,878,1507,1669,29087,29096,2147483647,64729,58,534,14386,964,7766,65043,0,3,3,2
fist to thumbs,17:45:39.731,29087,7747,3665,1718,1028,1586,782,1590,1437,852,909,2522,3607,29166,29179,29192,29223,29157,1379,1261,2623,1458,1880,2597,1133,1111,922,905,1533,1647,29100,29096,2147483647,64725,72,536,14383,968,7772,65051,0,3,3,2
fist to thumbs,17:45:39.910,29104,7729,3607,1700,1028,1546,799,1586,1423,874,905,2522,3612,29140,29104,29201,29214,29144,1432,1340,2610,1371,1814,2619,1160,1081,927,892,1524,1647,29047,29074,2147483647,64722,74,536,14381,959,7776,65052,0,3,3,2
fist to thumbs,17:45:40.009,28973,7734,3629,1705,1019,1577,799,1568,1406,861,949,2487,3634,29197,29144,29219,29184,29175,1441,1287,2623,1415,1863,2619,1138,1120,931,909,1542,1656,29056,28981,2147483647,64726,73,533,14385,956,7770,65049,0,3,3,2
rest in thumbs,17:45:40.109,28981,7743,3590,1669,1015,1573,795,1560,1393,900,931,2540,3651,29170,29184,29192,29175,29201,1415,1278,2605,1410,1876,2605,1146,1081,931,887,1538,1647,29087,29021,2147483647,64722,74,537,14390,961,7759,65055,0,3,3,2
rest in thumbs,17:45:40.209,29096,7738,3656,1674,1019,1560,795,1555,1463,848,962,2474,3577,29197,29166,29179,29210,29197,1441,1256,2641,1397,1832,2575,1120,1094,958,936,1516,1678,29109,29087,2147483647,64721,74,545,14393,973,7752,65052,0,3,3,2
rest in thumbs,17:45:40.233,29104,7738,3599,1678,1010,1568,830,1546,1472,856,922,2522,3625,29223,29192,29184,29214,29166,1419,1274,2654,1397,1867,2579,1103,1076,958,931,1507,1647,29126,29131,2147483647,64725,73,539,14394,978,7749,65050,0,3,3,2
rest in thumbs,17:45:40.333,28986,7738,3603,1744,1028,1564,817,1604,1494,856,931,2526,3616,29223,29175,29192,29188,29236,1458,1274,2597,1379,1845,2588,1111,1094,940,927,1542,1709,29126,29012,2147483647,64731,68,537,14395,978,7748,65050,0,3,3,2
rest in thumbs,17:45:40.434,29043,7769,3559,1709,1001,1546,786,1551,1450,852,931,2496,3616,29153,29197,29166,29201,29197,1437,1309,2649,1401,1801,2614,1111,1142,953,931,1498,1687,29025,28990,2147483647,64720,68,545,14398,981,7741,65048,0,3,3,2
rest in thumbs,17:45:40.610,29039,7751,3612,1700,997,1546,799,1573,1450,843,936,2478,3607,29241,29267,29267,29210,29206,1454,1274,2649,1379,1872,2575,1138,1129,971,900,1538,1661,29162,29096,2147483647,64729,67,541,14399,990,7739,65047,0,3,3,2
rest in thumbs,17:45:40.633,29061,7703,3643,1705,984,1582,799,1568,1472,870,936,2504,3665,29144,29179,29184,29153,29245,1428,1261,2627,1410,1841,2605,1111,1081,944,887,1524,1687,29069,28981,2147483647,64733,70,538,14396,992,7744,65047,0,3,3,2
rest in thumbs,17:45:40.743,29184,7773,3607,1718,1023,1582,795,1538,1476,870,922,2504,3590,29157,29043,29214,29236,29091,1415,1256,2601,1401,1850,2654,1125,1103,949,905,1542,1683,29188,29232,2147483647,64736,77,542,14398,996,7739,65044,0,3,3,2
rest in thumbs,17:45:40.909,29039,7703,3638,1691,966,1564,808,1573,1454,848,949,2469,3656,29140,29236,29179,29206,29197,1423,1300,2636,1393,1850,2579,1111,1111,975,909,1507,1634,29104,29039,2147483647,64734,71,544,14398,997,7739,65047,0,3,3,2
rest in thumbs,17:45:41.010,29021,7721,3599,1678,1037,1595,795,1551,1441,861,940,2487,3647,29206,29285,29214,29228,29250,1415,1248,2619,1375,1858,2557,1085,1089,966,927,1542,1661,29078,29008,2147483647,64730,70,538,14400,997,7736,65047,0,3,3,2
rest in thumbs,17:45:41.034,29113,7686,3546,1718,1028,1590,821,1520,1445,865,953,2504,3634,29210,29214,29219,29241,29148,1423,1291,2632,1410,1863,2579,1155,1103,914,874,1542,1661,29122,29061,2147483647,64734,72,550,14399,998,7738,65046,0,3,3,2
rest in thumbs,17:45:41.134,28999,7677,3585,1757,993,1586,799,1599,1476,856,927,2491,3625,29210,29241,29254,29245,29170,1437,1270,2641,1379,1841,2588,1103,1089,909,922,1516,1678,29113,28955,2147483647,64729,74,547,14400,998,7736,65046,0,3,3,2
rest in thumbs,17:45:41.234,29140,7716,3555,1691,1006,1520,786,1524,1441,856,966,2496,3638,29166,29179,29241,29170,29162,1397,1291,2623,1410,1867,2548,1120,1089,936,918,1529,1669,29166,29184,2147483647,64729,72,546,14402,998,7731,65046,0,3,3,2
rest in thumbs,17:45:41.410,29162,7681,3546,1678,1054,1546,795,1546,1472,852,900,2469,3607,29206,29188,29245,29223,29184,1432,1278,2623,1428,1841,2619,1125,1133,993,914,1520,1669,29201,29109,2147483647,64731,69,541,14402,1001,7732,65049,0,3,3,2
rest in thumbs,17:45:41.519,29153,7743,3612,1652,1028,1546,804,1599,1458,856,958,2482,3594,29232,29219,29280,29245,29170,1371,1291,2645,1415,1872,2562,1103,1120,918,892,1538,1652,29100,29157,2147483647,64726,74,544,14401,1001,7733,65049,0,3,3,2
rest in thumbs,17:45:41.609,29061,7721,3559,1678,984,1577,795,1582,1472,826,940,2500,3616,29210,29153,29188,29232,29192,1397,1291,2663,1388,1858,2605,1133,1054,984,918,1533,1656,29087,29047,2147483647,64732,73,544,14400,999,7735,65048,0,3,3,2
rest in thumbs,17:45:41.635,29175,7729,3541,1709,993,1590,804,1516,1441,839,949,2469,3616,29219,29197,29276,29271,29250,1463,1278,2619,1384,1876,2601,1125,1103,931,878,1511,1639,29166,29126,2147483647,64729,70,547,14401,1002,7733,65047,0,3,3,2
rest in thumbs,17:45:41.810,29179,7716,3559,1722,1001,1573,804,1564,1463,852,936,2452,3612,29179,29254,29219,29236,29201,1428,1256,2623,1441,1880,2619,1107,1081,931,892,1520,1639,29021,29192,2147483647,64730,69,543,14400,1002,7735,65047,0,3,3,2
rest in thumbs,17:45:41.909,29126,7703,3585,1696,988,1564,799,1520,1472,852,953,2465,3590,29219,29192,29236,29228,29219,1406,1256,2676,1401,1788,2623,1072,1120,944,918,1538,1643,29047,29091,2147483647,64725,70,551,14401,1002,7734,65047,0,3,3,2
rest in thumbs,17:45:42.009,29100,7690,3541,1757,979,1568,808,1520,1480,887,966,2474,3607,29175,29184,29241,29241,29140,1423,1287,2610,1388,1889,2579,1138,1081,940,856,1529,1656,29104,29122,2147483647,64728,72,540,14400,995,7736,65051,0,3,3,2
rest in thumbs,17:45:42.110,29188,7672,3577,1683,1032,1595,812,1551,1441,878,944,2465,3638,29197,29228,29232,29285,29179,1415,1278,2623,1410,1850,2601,1142,1107,940,909,1524,1639,29087,29153,2147483647,64729,70,544,14397,993,7742,65053,0,3,3,2
rest in thumbs,17:45:42.210,29113,7681,3590,1678,993,1577,751,1555,1454,861,900,2465,3599,29135,29162,29206,29214,29135,1406,1283,2610,1384,1858,2592,1107,1120,949,914,1520,1647,29091,29135,2147483647,64730,66,540,14391,993,7753,65053,0,3,3,2
rest in thumbs,17:45:42.309,29104,7650,3537,1713,1019,1568,834,1546,1450,874,927,2482,3629,29219,29192,29214,29267,29179,1375,1265,2610,1379,1841,2592,1125,1094,922,861,1511,1705,29135,29162,2147483647,64728,62,546,14382,994,7770,65054,0,3,3,2
rest in thumbs,17:45:42.409,29131,7655,3559,1687,997,1582,808,1546,1476,870,936,2438,3634,29162,29162,29267,29236,29201,1388,1291,2632,1410,1841,2588,1103,1076,966,900,1524,1643,28990,29118,2147483647,64735,68,541,14375,994,7782,65055,0,3,3,2
rest in thumbs,17:45:42.510,29126,7690,3563,1713,1023,1577,786,1538,1454,830,922,2478,3599,29210,29210,29271,29250,29228,1371,1283,2627,1410,1850,2588,1116,1116,931,896,1520,1661,29118,29184,2147483647,64729,70,547,14374,983,7787,65060,0,3,3,2
rest in thumbs,17:45:42.541,29109,7668,3577,1700,1015,1560,786,1529,1463,856,953,2447,3621,29184,29104,29175,29144,29144,1379,1278,2632,1375,1854,2570,1107,1125,971,887,1533,1669,29025,29113,2147483647,64736,65,541,14377,973,7782,65062,0,3,3,2
rest in thumbs,17:45:42.635,29192,7655,3559,1691,979,1551,786,1502,1472,865,931,2452,3634,29241,29241,29289,29228,29219,1423,1283,2619,1362,1836,2548,1133,1125,988,874,1529,1617,29122,29184,2147483647,64731,70,544,14377,965,7783,65063,0,3,3,2
rest in thumbs,17:45:42.810,29135,7712,3568,1700,997,1577,826,1502,1423,834,944,2456,3572,29179,29175,29201,29162,29188,1419,1252,2583,1401,1880,2605,1085,1120,940,883,1520,1634,29043,29096,2147483647,64733,69,540,14383,959,7774,65062,0,3,3,2
rest in thumbs,17:45:42.910,29162,7672,3550,1634,988,1586,808,1538,1458,848,962,2465,3594,29175,29170,29228,29232,29223,1423,1283,2614,1344,1784,2583,1129,1129,984,892,1529,1643,29008,29148,2147483647,64734,69,544,14390,958,7761,65065,0,3,3,2
rest in thumbs,17:45:43.009,29144,7699,3607,1674,1015,1560,817,1538,1463,900,953,2474,3625,29153,29219,29250,29223,29170,1406,1274,2632,1419,1858,2597,1129,1129,922,909,1538,1691,29126,29122,2147483647,64727,67,544,14395,961,7750,65070,0,3,3,2
rest in thumbs,17:45:43.119,29157,7655,3577,1661,1037,1555,826,1551,1454,900,931,2452,3625,29166,29236,29175,29241,29192,1401,1261,2632,1397,1858,2597,1146,1103,940,896,1524,1647,29113,29140,2147483647,64738,66,542,14398,964,7745,65065,0,3,3,2
rest in thumbs,17:45:43.210,29179,7725,3585,1661,1010,1533,791,1538,1529,856,936,2474,3559,29065,29166,29126,29135,29140,1393,1265,2636,1419,1889,2601,1103,1098,909,892,1524,1630,29118,29131,2147483647,64734,71,544,14393,978,7752,65056,0,3,3,2
rest in thumbs,17:45:43.310,29157,7712,3572,1705,984,1590,830,1507,1428,861,949,2421,3616,29254,29280,29210,29214,29153,1406,1300,2592,1410,1854,2592,1116,1138,962,892,1542,1678,29047,29131,2147483647,64724,67,541,14397,981,7744,65051,0,3,3,2
rest in thumbs,17:45:43.333,29140,7729,3568,1665,1019,1582,795,1542,1485,856,896,2513,3616,29210,29192,29219,29153,29179,1428,1252,2619,1375,1894,2557,1125,1081,914,834,1520,1617,29100,29153,2147483647,64730,72,544,14399,980,7740,65049,0,3,3,2
rest in thumbs,17:45:43.434,29153,7699,3585,1678,1006,1582,769,1524,1476,874,940,2465,3590,29197,29192,29219,29201,29219,1388,1291,2601,1415,1867,2579,1107,1059,936,905,1524,1656,29061,29179,2147483647,64728,72,540,14400,981,7737,65047,0,3,3,2
rest in thumbs,17:45:43.610,29157,7712,3616,1683,1028,1538,791,1560,1476,865,922,2452,3594,29179,29188,29201,29175,29166,1388,1300,2597,1397,1880,2588,1116,1098,940,900,1533,1674,29083,29109,2147483647,64724,68,543,14401,981,7736,65047,0,3,3,2
rest in thumbs,17:45:43.710,29140,7712,3638,1674,993,1568,830,1533,1480,817,918,2434,3594,29214,29210,29157,29184,29241,1384,1265,2610,1423,1858,2575,1098,1120,927,909,1551,1661,29043,29162,2147483647,64736,60,541,14401,981,7736,65047,0,3,3,2
rest in thumbs,17:45:43.734,29140,7716,3563,1683,1037,1582,782,1555,1437,874,909,2447,3599,29184,29175,29184,29157,29122,1393,1270,2597,1401,1836,2601,1089,1085,971,940,1511,1625,29043,29148,2147483647,64730,65,544,14400,1002,7735,65049,0,3,3,2
rest in thumbs,17:45:43.909,29104,7650,3585,1691,1037,1604,808,1551,1485,887,953,2443,3555,29245,29148,29109,29201,29201,1415,1283,2654,1401,1841,2557,1107,1107,953,922,1524,1674,29052,29144,2147483647,64727,73,543,14396,1020,7741,65060,0,3,3,2
rest in thumbs,17:45:44.010,29135,7712,3568,1700,993,1555,795,1560,1423,918,958,2452,3581,29162,29135,29162,29192,29162,1393,1261,2588,1379,1863,2601,1129,1085,909,874,1542,1647,29056,29166,2147483647,64735,86,542,14390,1033,7751,65054,0,3,3,2
rest in thumbs,17:45:44.109,29109,7686,3537,1687,1015,1538,821,1529,1441,878,944,2452,3599,29179,29122,29153,29153,29118,1423,1287,2632,1393,1836,2575,1133,1116,918,892,1507,1678,29025,29126,2147483647,64734,87,541,14391,1048,7747,65066,0,3,3,2
rest in thumbs,17:45:44.209,29148,7659,3559,1683,1019,1546,830,1494,1454,865,966,2421,3625,29241,29157,29170,29140,29188,1428,1239,2610,1388,1867,2575,1094,1089,927,874,1555,1612,29003,29166,2147483647,64727,88,538,14396,1059,7738,65087,0,3,3,2
rest in thumbs,17:45:44.235,29113,7721,3585,1661,1019,1582,791,1520,1441,865,953,2425,3607,29197,29148,29179,29184,29118,1393,1265,2605,1388,1858,2575,1125,1116,966,900,1524,1665,29166,29140,2147483647,64737,84,541,14397,1066,7735,65087,0,3,3,2
rest in thumbs,17:45:44.410,29109,7760,3572,1705,988,1560,808,1542,1454,905,900,2456,3581,29197,29140,29170,29179,29144,1393,1270,2614,1401,1828,2579,1107,1098,949,874,1533,1647,29144,29153,2147483647,64729,81,538,14400,1070,7729,65083,0,3,3,2
rest in thumbs,17:45:44.442,29197,7694,3603,1727,997,1568,764,1551,1511,839,936,2469,3625,29157,29184,28981,29003,29122,1406,1270,2645,1401,1828,2597,1129,1085,971,883,1538,1665,29148,29197,2147483647,64722,82,552,14400,1072,7728,65082,0,3,3,2
rest in thumbs,17:45:44.610,29131,7708,3568,1709,958,1560,795,1542,1432,856,914,2469,3656,29245,29201,29206,29179,29122,1419,1270,2645,1415,1845,2575,1085,1076,953,896,1573,1656,29135,29170,2147483647,64727,82,542,14400,1064,7729,65086,0,3,3,2
rest in thumbs,17:45:44.710,29104,7708,3550,1683,1015,1595,799,1516,1450,870,944,2487,3621,29201,29175,29144,29188,29170,1432,1278,2667,1371,1880,2562,1085,1129,914,852,1568,1696,29078,29135,2147483647,64735,86,538,14397,1043,7738,65089,0,3,3,2
rest in thumbs,17:45:44.736,29153,7729,3581,1727,1037,1533,782,1582,1467,861,909,2434,3607,29201,29223,29170,29140,29184,1401,1296,2654,1388,1876,2557,1107,1129,931,878,1546,1608,29039,29192,2147483647,64729,81,539,14395,1035,7742,65094,0,3,3,2
rest in thumbs,17:45:44.909,29047,7672,3568,1674,1001,1582,760,1564,1476,874,944,2421,3656,29166,29135,29166,29170,29153,1401,1309,2645,1379,1841,2570,1098,1098,927,905,1511,1647,29039,29069,2147483647,64725,75,540,14394,1031,7745,65097,0,3,3,2
rest in thumbs,17:45:45.009,29153,7686,3524,1696,1001,1568,812,1542,1458,852,922,2434,3660,29184,29179,29214,29250,29197,1397,1278,2649,1366,1863,2597,1129,1116,975,900,1546,1647,29065,29188,2147483647,64724,74,543,14393,1023,7749,65098,0,3,3,2
thumbs to fist,17:45:45.110,29039,7690,3550,1735,1019,1560,817,1555,1463,834,944,2447,3603,29188,29170,29219,29166,29118,1375,1261,2671,1397,1836,2566,1142,1098,962,905,1498,1639,29052,29148,2147483647,64728,75,536,14390,1010,7757,65097,0,3,3,2
thumbs to fist,17:45:45.210,29087,7787,3599,1678,1032,1533,839,1546,1445,861,944,2443,3585,29228,29192,29197,29210,29192,1401,1248,2623,1388,1867,2597,1089,1116,914,892,1516,1639,29118,29157,2147483647,64731,77,538,14390,992,7757,65095,0,3,3,2
thumbs to fist,17:45:45.236,29069,7677,3572,1709,1006,1551,830,1560,1485,883,949,2469,3559,29228,29210,29188,29197,29210,1384,1265,2649,1384,1858,2548,1111,1059,940,821,1502,1630,29109,29091,2147483647,64727,78,544,14391,987,7757,65097,0,3,3,2
thumbs to fist,17:45:45.335,29109,7686,3572,1678,975,1573,821,1551,1423,861,914,2395,3616,29210,29241,29228,29192,29228,1406,1261,2627,1375,1858,2553,1133,1059,918,909,1529,1687,29056,29122,2147483647,64735,74,541,14397,974,7748,65099,0,3,3,2
thumbs to fist,17:45:45.432,29109,7694,3537,1656,1001,1542,808,1542,1454,848,905,2438,3607,29201,29175,29206,29153,29166,1375,1261,2649,1397,1872,2614,1103,1094,966,900,1476,1661,29030,29061,2147483647,64741,71,546,14396,965,7749,65096,0,3,3,2
thumbs to fist,17:45:45.540,29210,7703,3555,1674,993,1555,808,1551,1529,830,953,2425,3585,29135,29131,29078,29109,29096,1362,1270,2632,1388,1845,2601,1111,1107,944,896,1551,1625,29078,29206,2147483647,64731,74,544,14394,963,7755,65098,0,3,3,2
thumbs to fist,17:45:45.634,29091,7672,3550,1691,1015,1555,804,1516,1480,874,936,2465,3546,29175,29153,29153,29197,29153,1410,1256,2645,1375,1876,2570,1076,1111,936,865,1573,1700,29061,29083,2147483647,64726,70,540,14398,959,7748,65100,0,3,3,2
thumbs to fist,17:45:45.935,29104,7681,3533,1683,1032,1555,799,1560,1423,848,958,2513,3572,29241,29214,29184,29228,29201,1441,1287,2667,1393,1876,2601,1133,1107,927,887,1533,1621,29091,29113,2147483647,64738,74,550,14436,948,7677,65099,0,3,3,2
thumbs to fist,17:45:46.135,29069,7668,3524,1683,979,1564,769,1516,1450,861,927,2500,3625,29250,29188,29175,29232,29188,1441,1252,2654,1410,1858,2597,1098,1081,979,892,1485,1669,29074,29118,2147483647,64732,72,549,14433,948,7683,65099,0,3,3,2
thumbs to fist,17:45:46.310,29122,7677,3506,1661,1054,1555,782,1577,1401,839,931,2518,3599,29170,29192,29219,29179,29175,1415,1243,2676,1353,1920,2632,1098,1116,958,883,1516,1687,29192,29104,2147483647,64740,67,548,14436,944,7678,65092,0,3,3,2
thumbs to fist,17:45:46.409,29109,7699,3511,1669,966,1612,812,1533,1454,843,944,2460,3585,29241,29184,29140,29214,29210,1401,1287,2685,1375,1889,2557,1111,1103,944,878,1516,1661,29061,29109,2147483647,64736,66,550,14440,946,7670,65090,0,3,3,2
thumbs to fist,17:45:46.436,29100,7650,3537,1678,1067,1564,769,1533,1432,852,936,2465,3638,29293,29223,29206,29184,29192,1458,1261,2632,1375,1810,2570,1094,1103,927,927,1502,1647,29074,29100,2147483647,64735,66,556,14443,946,7664,65090,0,3,3,2
thumbs to fist,17:45:46.610,29056,7712,3546,1661,979,1568,804,1516,1432,870,936,2456,3603,29188,29192,29179,29162,29179,1397,1265,2614,1397,1858,2605,1129,1103,953,883,1516,1665,29047,29109,2147483647,64737,67,552,14444,949,7663,65088,0,3,3,2
thumbs to fist,17:45:46.710,29078,7672,3528,1630,984,1590,791,1507,1410,874,940,2447,3572,29267,29201,29245,29214,29179,1428,1270,2654,1393,1810,2579,1133,1081,905,896,1542,1687,29184,29109,2147483647,64739,68,550,14445,949,7660,65088,0,3,3,2
thumbs to fist,17:45:46.809,29078,7664,3537,1696,971,1564,826,1516,1401,874,940,2456,3603,29241,29153,29175,29223,29188,1410,1243,2663,1353,1832,2605,1107,1081,922,892,1507,1674,29083,29109,2147483647,64733,63,554,14445,951,7660,65087,0,3,3,2
thumbs to fist,17:45:46.930,29131,7633,3572,1700,1001,1586,808,1524,1397,852,958,2443,3607,29228,29219,29206,29214,29219,1428,1287,2627,1393,1854,2627,1116,1094,936,927,1551,1669,29131,29126,2147483647,64730,64,548,14445,954,7659,65085,0,3,3,2
thumbs to fist,17:45:47.020,29017,7672,3572,1674,1001,1546,795,1529,1498,874,909,2491,3621,29228,29175,29175,29170,29214,1410,1278,2645,1393,1841,2562,1103,1107,944,940,1542,1687,29118,29008,2147483647,64739,69,552,14444,954,7661,65085,0,3,3,2
thumbs to fist,17:45:47.109,29148,7721,3559,1674,1006,1608,804,1533,1450,856,966,2482,3590,29170,29126,29188,29140,29162,1397,1305,2627,1401,1858,2588,1067,1089,940,887,1520,1678,29214,29210,2147483647,64737,67,554,14442,954,7664,65085,0,3,3,2
thumbs to fist,17:45:47.136,29065,7769,3550,1683,1006,1529,795,1524,1415,848,940,2460,3616,29201,29135,29135,29100,29179,1437,1230,2636,1357,1894,2548,1129,1094,962,900,1524,1683,29113,29052,2147483647,64736,67,553,14440,964,7667,65085,0,3,3,2
thumbs to fist,17:45:47.310,29096,7668,3541,1669,1028,1586,764,1485,1393,865,944,2456,3599,29245,29157,29263,29254,29228,1463,1291,2583,1379,1889,2575,1146,1107,927,883,1546,1669,29144,29069,2147483647,64736,68,553,14438,969,7671,65083,0,3,3,2
thumbs to fist,17:45:47.410,29056,7703,3572,1683,979,1582,804,1467,1406,834,958,2465,3572,29263,29201,29144,29118,29166,1415,1296,2566,1379,1867,2597,1120,1076,922,922,1520,1634,29118,29100,2147483647,64736,66,546,14433,965,7681,65085,0,3,3,2
thumbs to fist,17:45:47.519,29083,7699,3563,1691,1015,1560,764,1560,1357,839,927,2434,3656,29258,29192,29179,29236,29197,1423,1274,2605,1415,1872,2579,1129,1116,931,909,1538,1665,29140,29100,2147483647,64739,65,555,14434,964,7679,65082,0,3,3,2
thumbs to fist,17:45:47.609,29104,7686,3559,1696,993,1564,817,1546,1454,865,922,2465,3603,29206,29118,29074,29087,29087,1441,1230,2583,1384,1858,2623,1116,1111,988,909,1507,1674,29144,29210,2147483647,64737,68,550,14429,961,7688,65085,0,3,3,1
thumbs to fist,17:45:47.638,29153,7677,3585,1691,1001,1568,786,1520,1410,839,944,2443,3612,29175,29188,29223,29179,29223,1445,1239,2636,1401,1863,2592,1089,1120,914,883,1511,1639,29144,29140,2147483647,64730,64,549,14428,959,7691,65089,0,3,3,1
thumbs to fist,17:45:47.809,29065,7659,3599,1643,1037,1538,795,1498,1410,839,958,2447,3634,29188,29192,29166,29135,29197,1419,1278,2623,1366,1858,2619,1155,1089,958,936,1511,1674,29135,29131,2147483647,64730,69,552,14425,953,7698,65093,0,3,3,1
thumbs to fist,17:45:47.908,29083,7699,3577,1683,979,1542,795,1538,1410,830,918,2447,3629,29210,29236,29166,29162,29258,1415,1261,2610,1401,1858,2579,1133,1120,940,887,1502,1661,29166,29153,2147483647,64738,64,550,14424,944,7702,65098,0,3,3,1
thumbs to fist,17:45:47.939,29104,7708,3572,1647,993,1582,795,1516,1388,865,949,2456,3612,29118,29179,29153,29192,29210,1450,1287,2641,1397,1872,2575,1081,1063,953,914,1511,1669,29113,29061,2147483647,64736,61,545,14419,940,7711,65100,0,3,3,1
thumbs to fist,17:45:48.035,29162,7686,3577,1643,984,1551,812,1511,1419,839,953,2478,3590,29219,29192,29197,29210,29254,1410,1283,2632,1353,1889,2579,1103,1076,922,878,1502,1639,29192,29122,2147483647,64735,58,551,14418,937,7715,65103,0,3,3,1
thumbs to fist,17:45:48.135,29140,7760,3572,1634,1001,1568,769,1524,1353,900,936,2438,3581,29184,29131,29166,29210,29210,1463,1287,2614,1371,1863,2619,1125,1103,944,896,1463,1661,29184,29170,2147483647,64733,61,549,14415,931,7720,65106,0,3,3,1
thumbs to fist,17:45:48.234,29113,7729,3572,1687,1023,1586,786,1516,1419,861,962,2452,3599,29122,29148,29184,29188,29175,1401,1309,2575,1384,1867,2557,1133,1116,918,905,1498,1669,29192,29170,2147483647,64726,65,544,14415,927,7720,65108,0,3,3,1
thumbs to fist,17:45:48.336,29219,7686,3590,1683,1010,1560,795,1524,1384,896,949,2469,3585,29109,29192,29201,29175,29175,1423,1305,2610,1410,1885,2592,1129,1120,927,896,1546,1625,29144,29153,2147483647,64733,64,546,14416,930,7717,65109,0,3,3,1
thumbs to fist,17:45:48.509,29162,7747,3616,1696,1028,1542,747,1524,1371,861,944,2456,3594,29166,29241,29214,29271,29232,1419,1296,2623,1419,1832,2575,1098,1072,922,887,1489,1661,29131,29148,2147483647,64739,59,544,14417,940,7715,65111,0,3,3,1
thumbs to fist,17:45:48.608,29162,7708,3568,1718,1023,1551,804,1524,1344,852,940,2438,3616,29087,29184,29219,29206,29175,1472,1261,2605,1366,1880,2575,1111,1081,931,887,1498,1652,29197,29131,2147483647,64736,59,552,14417,945,7714,65108,0,3,3,1
thumbs to fist,17:45:48.708,29126,7721,3629,1700,1019,1533,808,1533,1384,856,922,2438,3634,29144,29214,29175,29184,29228,1441,1270,2592,1388,1916,2597,1103,1125,927,878,1538,1674,29131,29122,2147483647,64730,67,553,14418,953,7710,65104,0,3,3,1
thumbs to fist,17:45:48.809,29109,7729,3581,1691,1037,1555,799,1524,1388,839,940,2478,3634,29157,29206,29271,29219,29219,1437,1256,2627,1397,1872,2592,1120,1094,944,931,1564,1639,29219,29131,2147483647,64728,67,546,14422,953,7705,65104,0,3,3,1
thumbs to fist,17:45:48.909,29122,7716,3629,1683,1010,1551,812,1502,1388,834,962,2399,3594,29061,29192,29153,29206,29192,1415,1252,2614,1428,1845,2566,1094,1085,944,883,1524,1665,29162,29148,2147483647,64740,63,546,14422,955,7703,65102,0,3,3,1
thumbs to fist,17:45:49.008,29113,7716,3599,1691,1015,1560,795,1494,1437,892,918,2456,3634,29021,29263,29188,29192,29219,1450,1256,2610,1384,1854,2592,1103,1125,966,878,1502,1630,29232,29170,2147483647,64734,65,552,14423,956,7701,65102,0,3,3,1
thumbs to fist,17:45:49.109,29104,7747,3656,1674,1010,1573,791,1546,1401,865,936,2438,3612,28986,29214,29170,29219,29210,1410,1265,2597,1384,1858,2583,1094,1076,949,878,1507,1647,29214,29157,2147483647,64736,64,549,14424,956,7699,65101,0,3,3,1
thumbs to fist,17:45:49.136,29162,7708,3599,1678,1001,1577,777,1516,1432,861,949,2456,3612,29170,29276,29219,29192,29250,1423,1243,2592,1375,1885,2619,1111,1098,936,892,1546,1661,29157,29166,2147483647,64736,70,554,14426,956,7695,65098,0,3,3,1
thumbs to fist,17:45:49.309,29153,7721,3572,1727,984,1573,773,1494,1401,848,936,2434,3625,29126,29192,29210,29210,29184,1463,1261,2579,1401,1867,2619,1133,1111,940,892,1546,1674,29144,29135,2147483647,64737,62,556,14431,949,7685,65096,0,3,3,1
