Scenario,Time,P0,P1,P2,P3,P4,P5,P6,P7,P8,P9,P10,P11,P12,P13,P14,P15,P16,P17,P18,P19,P20,P21,P22,P23,P24,P25,P26,P27,P28,P29,P30,P31,ECG,AX,AY,AZ,QW,QX,QY,QZ,CS,CA,CG,CM
paper,16:56:00.083,29162,7132,3001,1753,993,1331,782,1573,1564,914,988,2496,3458,29214,29210,29188,29162,29166,1454,1327,2140,1476,1762,2579,1173,1186,958,914,1604,1700,29219,29166,2147483647,64708,65529,545,3931,7604,1932,51700,1,3,3,2
paper,16:56:00.109,29113,7185,2983,1705,975,1327,830,1577,1577,936,936,2566,3476,29104,29228,29263,29184,29254,1467,1305,2122,1454,1722,2592,1182,1190,984,979,1604,1669,29271,29096,2147483647,64710,9,541,3974,7570,1976,51700,1,3,3,2
paper,16:56:00.283,29157,7176,3041,1718,988,1300,773,1568,1551,878,958,2509,3489,29091,29263,29214,29258,29298,1458,1322,2135,1472,1757,2601,1168,1160,988,940,1577,1691,29214,29148,2147483647,64708,38,527,4021,7538,2069,51709,1,3,3,2
paper,16:56:00.384,29157,7145,2997,1735,962,1313,799,1564,1551,905,931,2548,3471,29039,29267,29254,29250,29236,1476,1300,2140,1472,1779,2601,1164,1138,1010,971,1617,1669,29122,29184,2147483647,64708,35,535,4070,7523,2122,51724,1,3,3,2
paper,16:56:00.483,29157,7193,3019,1740,1019,1331,747,1604,1582,874,953,2513,3493,29210,29170,29170,29214,29144,1454,1318,2135,1480,1735,2548,1195,1186,1019,944,1529,1709,29166,29192,2147483647,64712,8,530,4086,7523,2145,51732,1,3,3,2
paper,16:56:00.695,29166,7149,2944,1735,988,1331,760,1617,1551,883,944,2540,3471,29210,29250,29223,29210,29201,1445,1375,2126,1485,1718,2592,1160,1168,993,975,1568,1705,29197,29184,2147483647,64715,8,531,4014,7549,2074,51714,1,3,3,2
paper,16:56:00.907,29122,7136,2961,1709,971,1322,791,1582,1568,914,944,2509,3449,29047,29241,29258,29201,29298,1463,1331,2109,1467,1727,2557,1217,1177,984,949,1612,1705,29263,29197,2147483647,64713,16,542,4017,7548,2089,51717,1,3,3,2
paper,16:56:01.006,29197,7132,2961,1792,953,1318,817,1590,1538,909,966,2509,3476,29091,29258,29236,29232,29293,1450,1318,2126,1463,1770,2566,1168,1190,1010,949,1573,1691,29267,29184,2147483647,64703,5,533,4015,7558,2093,51724,1,3,3,2
paper,16:56:01.106,29179,7145,2979,1718,949,1313,773,1568,1560,905,971,2522,3467,29096,29285,29250,29197,29285,1458,1322,2100,1476,1735,2557,1160,1190,962,927,1617,1722,29241,29258,2147483647,64718,7,535,4015,7587,2099,51739,1,3,3,2
paper,16:56:01.283,29201,7114,2917,1713,1006,1309,791,1573,1555,927,927,2500,3467,29144,29267,29245,29223,29280,1410,1340,2135,1467,1727,2548,1199,1182,966,958,1604,1718,29175,29175,2147483647,64710,11,535,4016,7602,2101,51748,1,3,3,2
paper,16:56:01.383,29219,7119,2948,1735,979,1296,804,1577,1568,918,971,2522,3454,29192,29298,29263,29241,29315,1476,1331,2131,1476,1744,2579,1120,1221,1019,944,1586,1691,29179,29210,2147483647,64708,9,537,4022,7611,2099,51755,1,3,3,2
paper,16:56:01.406,29179,7141,2935,1744,1001,1327,747,1555,1630,927,984,2526,3493,29144,29236,29241,29250,29258,1463,1296,2131,1454,1678,2522,1164,1195,997,931,1573,1669,29166,29219,2147483647,64714,11,533,4020,7608,2099,51753,1,3,3,2
paper,16:56:01.593,29241,7136,2966,1740,979,1309,773,1586,1582,918,936,2496,3471,29201,29263,29245,29263,29298,1463,1344,2118,1467,1678,2557,1155,1221,1028,918,1625,1691,29175,29241,2147483647,64703,11,530,4020,7613,2096,51755,1,3,3,2
paper,16:56:01.683,29197,7154,2979,1740,997,1322,773,1568,1586,909,940,2491,3454,29245,29206,29170,29109,29254,1472,1335,2078,1463,1718,2562,1160,1142,971,936,1612,1705,29192,29170,2147483647,64711,13,534,4015,7625,2103,51761,1,3,3,2
paper,16:56:01.794,29184,7149,2961,1683,971,1335,777,1617,1582,861,940,2522,3458,29192,29276,29263,29236,29271,1454,1340,2135,1445,1744,2562,1155,1199,966,944,1560,1669,29153,29250,2147483647,64711,13,530,4003,7624,2111,51758,1,3,3,2
paper,16:56:01.894,29206,7136,2939,1744,988,1305,760,1551,1546,896,914,2500,3502,29210,29166,29122,29157,29140,1450,1300,2087,1480,1749,2579,1212,1212,988,958,1568,1744,29166,29170,2147483647,64711,14,525,3994,7621,2114,51754,1,3,3,2
paper,16:56:01.918,29170,7101,2983,1696,997,1340,777,1564,1529,936,971,2491,3462,29263,29192,29135,29126,29157,1467,1327,2131,1494,1766,2566,1164,1160,1006,962,1608,1696,29250,29206,2147483647,64708,9,525,3983,7614,2110,51747,1,3,3,2
paper,16:56:02.083,29219,7123,2992,1757,993,1340,786,1560,1551,936,936,2491,3484,29206,29197,29206,29267,29228,1494,1349,2126,1472,1718,2566,1155,1208,1019,997,1582,1705,29157,29166,2147483647,64710,5,529,3981,7616,2107,51747,1,3,3,2
paper,16:56:02.184,29197,7110,2957,1749,979,1327,808,1551,1555,909,971,2487,3423,29157,29258,29263,29223,29250,1489,1313,2104,1472,1740,2570,1195,1208,1001,971,1551,1687,29206,29210,2147483647,64714,6,531,3975,7621,2098,51746,1,3,3,2
paper,16:56:02.207,29179,7132,2966,1740,997,1291,817,1595,1577,905,949,2504,3498,29175,29206,29175,29263,29267,1476,1353,2170,1472,1753,2570,1186,1190,988,949,1573,1669,29241,29153,2147483647,64710,0,535,3969,7624,2087,51745,1,3,3,2
paper,16:56:02.403,29197,7176,2944,1740,971,1313,808,1604,1568,909,914,2434,3458,29170,29258,29258,29254,29250,1419,1331,2140,1423,1749,2579,1155,1182,1019,936,1590,1687,29192,29219,2147483647,64711,9,532,3964,7627,2079,51744,1,3,3,2
paper,16:56:02.483,29131,7167,2983,1784,1015,1313,817,1560,1542,936,918,2482,3458,29232,29219,29210,29175,29293,1476,1349,2109,1480,1753,2562,1155,1168,979,927,1586,1709,29096,29104,2147483647,64708,10,527,3963,7631,2078,51745,1,3,3,2
paper,16:56:02.508,29232,7154,3001,1705,975,1335,777,1577,1573,936,944,2504,3454,29228,29170,29241,29245,29210,1428,1349,2122,1467,1735,2575,1186,1204,984,944,1582,1669,29228,29201,2147483647,64707,10,528,3958,7633,2070,51744,1,3,3,2
paper,16:56:02.608,29245,7132,2992,1735,988,1305,760,1599,1555,927,962,2456,3454,29144,29118,29276,29214,29021,1463,1344,2122,1489,1722,2623,1204,1164,984,918,1551,1665,29254,29263,2147483647,64709,11,529,3953,7636,2061,51743,1,3,3,2
paper,16:56:02.783,29250,7127,2975,1735,975,1322,795,1568,1568,909,936,2487,3418,29223,29271,29157,29219,29285,1494,1313,2109,1480,1753,2601,1186,1173,1028,940,1577,1705,29192,29236,2147483647,64708,7,524,3952,7637,2059,51743,1,3,3,2
paper,16:56:02.894,29245,7149,2979,1753,975,1331,804,1564,1573,931,958,2531,3489,29223,29109,29276,29285,29104,1423,1353,2126,1450,1731,2575,1173,1199,966,988,1551,1674,29232,29214,2147483647,64709,12,532,3953,7631,2058,51739,1,3,3,2
paper,16:56:02.984,29219,7105,2948,1735,966,1318,782,1568,1590,874,931,2491,3498,29232,29241,29184,29258,29228,1476,1331,2140,1458,1722,2605,1173,1190,988,1001,1595,1718,29188,29258,2147483647,64708,10,524,3952,7624,2057,51735,1,3,3,2
paper,16:56:03.083,29206,7123,2992,1696,997,1291,791,1595,1573,940,962,2478,3498,29122,29140,29223,29245,29122,1480,1362,2157,1445,1705,2526,1164,1186,993,958,1595,1683,29254,29263,2147483647,64708,7,536,3952,7620,2056,51733,1,3,3,2
paper,16:56:03.183,29170,7136,2966,1740,971,1305,773,1582,1533,931,949,2491,3493,29135,29017,29236,29250,29078,1445,1318,2131,1472,1766,2548,1155,1190,1001,949,1582,1713,29228,29214,2147483647,64715,9,537,3954,7608,2053,51727,1,3,3,2
paper,16:56:03.405,29228,7123,2975,1705,997,1322,817,1604,1564,909,936,2491,3493,29131,29184,29293,29271,29166,1441,1318,2100,1454,1727,2496,1151,1186,979,988,1577,1696,29184,29271,2147483647,64712,10,537,3953,7602,2050,51722,1,3,3,2
paper,16:56:03.607,29192,7149,2957,1757,958,1322,764,1560,1538,909,922,2491,3493,29197,29175,29302,29289,29170,1458,1300,2104,1454,1718,2540,1142,1164,993,949,1586,1735,29219,29263,2147483647,64714,11,536,3953,7602,2050,51722,1,3,3,2
paper,16:56:03.713,29206,7180,3005,1727,927,1313,821,1595,1560,905,949,2500,3489,29135,29157,29228,29232,29179,1454,1322,2131,1454,1713,2504,1164,1195,984,988,1586,1718,29201,29223,2147483647,64722,7,538,3950,7601,2051,51721,1,3,3,2
paper,16:56:03.810,29214,7171,2983,1740,988,1327,826,1568,1516,874,931,2469,3427,29201,29219,29307,29280,29091,1458,1305,2131,1485,1749,2562,1182,1173,1028,962,1560,1718,29311,29214,2147483647,64711,14,538,3952,7601,2051,51722,1,3,3,2
paper,16:56:03.910,29250,7163,3010,1753,971,1309,804,1608,1564,914,958,2491,3418,29175,29144,29285,29311,29192,1454,1331,2109,1502,1735,2526,1173,1168,971,971,1582,1696,29271,29192,2147483647,64710,10,533,3952,7600,2050,51721,1,3,3,2
paper,16:56:04.084,29219,7154,2970,1700,988,1318,773,1538,1524,896,931,2504,3445,29184,29197,29289,29293,29074,1445,1340,2087,1463,1744,2548,1186,1212,1001,966,1586,1709,29285,29214,2147483647,64714,8,537,3950,7597,2051,51719,1,3,3,2
paper,16:56:04.183,29241,7105,2992,1713,958,1331,817,1577,1551,927,958,2491,3458,29148,29118,29276,29258,29061,1432,1366,2109,1445,1713,2570,1182,1212,971,953,1555,1683,29276,29210,2147483647,64710,6,540,3950,7597,2051,51719,1,3,3,2
paper,16:56:04.205,29254,7132,2970,1749,1006,1331,834,1590,1546,927,922,2456,3445,29166,29192,29311,29223,29118,1463,1322,2087,1432,1766,2509,1142,1146,1015,940,1546,1683,29276,29219,2147483647,64711,8,541,3950,7598,2051,51719,1,3,3,2
paper,16:56:04.384,29228,7154,2966,1713,997,1313,773,1546,1551,927,953,2518,3515,29135,29047,29263,29285,29100,1428,1318,2100,1472,1744,2531,1155,1195,997,958,1551,1678,29219,29210,2147483647,64716,3,543,3949,7600,2052,51721,1,3,3,2
paper,16:56:04.407,29232,7154,2983,1753,984,1309,777,1599,1582,892,988,2504,3484,29148,29043,29298,29241,29206,1450,1318,2122,1485,1735,2544,1204,1208,1006,944,1568,1709,29188,29219,2147483647,64712,8,537,3951,7601,2056,51722,1,3,3,2
paper,16:56:04.593,29245,7132,2948,1709,1006,1322,764,1573,1577,905,962,2469,3423,29228,29232,29179,29241,29214,1445,1296,2087,1472,1749,2562,1182,1190,1001,993,1595,1709,29236,29276,2147483647,64710,2,532,3954,7601,2065,51725,1,3,3,2
paper,16:56:04.683,29188,7145,2939,1735,1015,1296,786,1582,1560,874,936,2500,3489,29223,29228,29192,29210,29263,1437,1318,2113,1467,1740,2513,1164,1186,993,966,1529,1709,29166,29232,2147483647,64715,8,536,3959,7608,2064,51730,1,3,3,2
paper,16:56:04.725,29228,7136,2926,1753,966,1331,791,1568,1582,900,975,2478,3471,29104,29104,29241,29293,29052,1432,1300,2096,1450,1700,2548,1212,1151,1019,971,1604,1691,29201,29254,2147483647,64711,5,538,3961,7612,2070,51733,1,3,3,2
paper,16:56:04.819,29170,7097,2975,1757,988,1331,786,1560,1551,896,966,2474,3454,29210,29276,29219,29267,29241,1450,1309,2078,1467,1762,2540,1182,1195,1006,975,1582,1700,29135,29267,2147483647,64714,5,529,3961,7618,2073,51737,1,3,3,2
paper,16:56:04.909,29201,7062,2944,1762,988,1327,795,1568,1577,905,949,2460,3454,29122,29113,29254,29324,29065,1445,1313,2113,1441,1731,2522,1160,1221,1019,984,1604,1683,29201,29267,2147483647,64712,6,530,3960,7621,2074,51738,1,3,3,2
go to fist,16:56:05.008,29232,7145,2917,1744,993,1318,791,1564,1542,914,966,2474,3471,29074,29179,29271,29236,29021,1445,1327,2061,1472,1744,2518,1120,1168,988,971,1582,1700,29258,29236,2147483647,64715,7,531,3960,7621,2074,51738,1,3,3,2
go to fist,16:56:05.123,29153,7127,2961,1727,979,1322,804,1577,1546,887,892,2513,3458,29162,29201,29245,29250,29245,1476,1331,2091,1441,1705,2518,1164,1186,984,962,1573,1683,29166,29131,2147483647,64713,8,533,3961,7618,2073,51737,1,3,3,2
go to fist,16:56:05.208,29188,7114,2997,1749,971,1327,812,1555,1520,931,958,2474,3454,29126,29170,29241,29298,29170,1458,1313,2135,1458,1700,2513,1195,1190,971,953,1551,1652,29214,29206,2147483647,64714,6,535,3961,7617,2073,51737,1,3,3,2
go to fist,16:56:05.383,29223,7149,2957,1696,1010,1318,808,1577,1507,922,984,2474,3493,29148,29192,29298,29271,29012,1463,1313,2087,1458,1731,2496,1186,1208,971,940,1568,1705,29206,29214,2147483647,64708,4,532,3961,7615,2072,51735,1,3,3,2
go to fist,16:56:05.494,29170,7132,2966,1762,953,1335,812,1582,1555,883,971,2465,3427,29113,29166,29298,29285,29175,1511,1340,2096,1445,1727,2526,1217,1208,997,927,1599,1683,29153,29188,2147483647,64710,6,535,3958,7617,2066,51734,1,3,3,2
go to fist,16:56:05.584,29210,7105,2957,1731,1001,1318,725,1573,1590,909,949,2474,3449,29188,29245,29201,29271,29254,1454,1318,2096,1485,1731,2500,1160,1199,1010,966,1595,1674,29074,29285,2147483647,64713,4,529,3957,7619,2066,51735,1,3,3,2
go to fist,16:56:05.607,29153,7163,2966,1722,979,1313,777,1577,1573,905,971,2504,3454,29113,29206,29241,29280,29175,1463,1331,2083,1458,1757,2526,1173,1186,984,958,1604,1652,29201,29241,2147483647,64708,7,533,3957,7619,2066,51735,1,3,3,2
go to fist,16:56:05.784,29188,7105,2997,1713,1001,1287,795,1604,1582,896,966,2447,3520,29210,29241,29245,29311,29214,1445,1322,2096,1467,1713,2544,1155,1190,988,979,1586,1705,29236,29258,2147483647,64714,4,540,3957,7619,2066,51735,1,3,3,2
go to fist,16:56:05.816,29245,7145,2961,1744,975,1318,804,1573,1590,914,966,2500,3432,29206,29250,29228,29210,29192,1432,1331,2069,1454,1700,2509,1212,1190,975,958,1608,1696,29263,29245,2147483647,64711,4,533,3958,7618,2066,51735,1,3,3,2
go to fist,16:56:05.906,29210,7110,2957,1727,940,1313,791,1573,1595,883,940,2491,3445,29192,29188,29267,29228,29206,1485,1309,2100,1454,1705,2553,1173,1146,993,962,1560,1683,29157,29219,2147483647,64712,7,535,3958,7618,2066,51735,1,3,3,2
go to fist,16:56:06.018,29232,7088,2935,1762,962,1309,786,1590,1582,892,966,2478,3440,29188,29201,29236,29245,29298,1454,1384,2061,1480,1705,2535,1151,1186,988,962,1560,1705,29126,29206,2147483647,64712,5,537,3958,7616,2066,51734,1,3,3,2
go to fist,16:56:06.184,29140,7105,2948,1784,949,1322,795,1564,1555,878,953,2487,3493,29179,29232,29293,29241,29245,1476,1305,2069,1463,1740,2535,1186,1199,1006,966,1590,1687,29091,29087,2147483647,64716,6,542,3958,7615,2065,51733,1,3,3,2
go to fist,16:56:06.284,29267,7083,2948,1727,975,1344,834,1586,1568,896,971,2491,3440,29069,29188,29184,29214,29206,1437,1331,2052,1441,1687,2540,1190,1212,949,975,1573,1665,29148,29250,2147483647,64709,6,536,3958,7613,2065,51732,1,3,3,2
go to fist,16:56:06.394,29254,7119,2935,1753,1015,1322,812,1533,1586,905,931,2482,3462,29214,29184,29118,29113,29232,1410,1318,2100,1437,1735,2544,1155,1168,1019,966,1582,1683,29083,29271,2147483647,64717,3,541,3958,7612,2068,51732,1,3,3,2
go to fist,16:56:06.483,29245,7127,2992,1766,988,1340,817,1560,1538,927,931,2491,3436,29219,29258,29157,29206,29192,1476,1335,2109,1485,1718,2540,1186,1186,1001,940,1551,1696,28999,29214,2147483647,64715,0,539,3950,7608,2079,51729,1,3,3,2
go to fist,16:56:06.584,29197,7158,2961,1735,988,1309,799,1568,1621,892,949,2447,3401,29219,29166,29201,29219,29223,1432,1331,2109,1450,1713,2531,1177,1226,1010,971,1546,1722,29118,29232,2147483647,64715,0,538,3952,7606,2085,51730,1,3,3,2
go to fist,16:56:06.607,29298,7171,3014,1735,940,1322,795,1533,1564,914,949,2491,3449,29184,29184,29113,29109,29166,1432,1300,2118,1458,1678,2570,1164,1168,1041,962,1595,1674,29179,29254,2147483647,64713,65534,539,3956,7605,2097,51732,1,3,3,2
go to fist,16:56:06.784,29254,7163,2970,1775,988,1362,795,1564,1590,874,975,2522,3467,29118,29210,29184,29148,29210,1511,1335,2100,1498,1744,2592,1199,1195,1010,944,1586,1709,29153,29236,2147483647,64715,65535,538,3962,7602,2107,51734,1,3,3,2
go to fist,16:56:06.824,29131,7171,3027,1757,993,1327,821,1577,1533,865,971,2491,3410,29113,29223,29144,29131,29228,1463,1313,2096,1450,1766,2583,1204,1217,966,922,1639,1709,29184,29047,2147483647,64715,1,534,3962,7592,2109,51728,1,3,3,2
go to fist,16:56:06.906,29258,7193,2931,1792,984,1331,777,1577,1582,931,936,2496,3445,29122,29091,29008,29197,29135,1450,1313,2113,1454,1757,2575,1160,1212,958,958,1604,1718,29184,29254,2147483647,64716,65531,543,3968,7586,2120,51728,1,3,3,2
go to fist,16:56:07.084,29293,7154,3062,1828,988,1322,786,1568,1573,878,949,2531,3493,29131,29148,29126,29140,29144,1463,1349,2096,1463,1735,2575,1182,1182,988,944,1595,1696,29241,29271,2147483647,64718,65531,539,3974,7582,2132,51730,1,3,3,2
go to fist,16:56:07.193,29250,7189,3027,1727,944,1349,830,1551,1582,927,944,2575,3524,29118,29135,29170,29122,29140,1458,1313,2104,1520,1727,2605,1182,1212,997,914,1634,1687,29126,29245,2147483647,64711,65531,536,3979,7582,2141,51732,1,3,3,2
go to fist,16:56:07.283,29232,7211,3023,1740,975,1331,804,1604,1582,852,940,2575,3506,29250,29197,29241,29206,29170,1502,1313,2065,1494,1757,2605,1182,1151,1028,940,1604,1700,29083,29293,2147483647,64711,65530,538,3979,7574,2144,51729,1,3,3,2
go to fist,16:56:07.315,29250,7198,2992,1762,966,1291,804,1533,1582,922,958,2531,3520,29280,29302,29122,29113,29258,1467,1296,2083,1458,1709,2645,1182,1164,1019,958,1573,1691,29113,29250,2147483647,64717,65528,535,3980,7565,2149,51725,1,3,3,2
go to fist,16:56:07.484,29241,7215,2979,1696,1015,1353,812,1538,1555,874,953,2522,3449,29250,29201,29228,29245,29153,1476,1291,2091,1450,1753,2579,1199,1168,1015,988,1590,1731,29157,29241,2147483647,64716,65531,537,3983,7558,2157,51723,1,3,3,2
go to fist,16:56:07.583,29214,7136,2966,1797,962,1305,782,1573,1568,892,905,2562,3449,29140,29113,29043,29104,29118,1428,1318,2104,1419,1722,2605,1155,1125,988,971,1564,1691,29144,29188,2147483647,64719,65532,538,3984,7558,2164,51724,1,3,3,2
go to fist,16:56:07.605,29280,7132,2975,1753,975,1318,773,1590,1560,927,953,2544,3520,29157,29144,29017,29188,29135,1458,1344,2131,1485,1762,2610,1182,1204,1028,927,1612,1696,29206,29263,2147483647,64715,65526,541,3987,7551,2173,51723,1,3,3,2
go to fist,16:56:07.794,29280,7167,3005,1753,988,1331,795,1560,1590,887,936,2579,3480,29104,29144,29025,29021,29096,1458,1349,2109,1454,1762,2605,1195,1208,993,953,1599,1700,29188,29245,2147483647,64713,65526,541,3992,7543,2186,51722,1,3,3,2
go to fist,16:56:07.884,29250,7185,2983,1757,988,1349,848,1560,1573,918,940,2570,3449,29214,29192,29245,29245,29250,1463,1331,2122,1480,1753,2583,1151,1217,1023,975,1595,1700,29008,29298,2147483647,64712,65526,537,3998,7542,2192,51724,1,3,3,2
go to fist,16:56:07.983,29245,7163,2948,1757,993,1384,839,1595,1573,944,905,2557,3493,29170,29126,29025,29056,29144,1428,1375,2126,1472,1770,2605,1168,1168,1006,962,1617,1731,29140,29267,2147483647,64719,65529,535,4001,7538,2200,51724,1,3,3,2
go to fist,16:56:08.084,29228,7127,3010,1792,984,1371,795,1577,1604,896,936,2557,3502,29258,29113,29030,29017,29140,1458,1300,2096,1480,1718,2583,1182,1168,997,958,1621,1731,29162,29232,2147483647,64718,65526,540,4000,7533,2201,51722,1,3,3,2
go to fist,16:56:08.184,29241,7163,2944,1762,993,1318,804,1568,1538,914,922,2540,3537,29039,29078,29043,29179,29091,1441,1296,2104,1480,1731,2610,1195,1217,971,997,1590,1696,29197,29271,2147483647,64714,65527,536,4000,7531,2201,51720,1,3,3,2
go to fist,16:56:08.283,29280,7176,2970,1757,953,1335,812,1577,1568,909,975,2557,3480,29175,29157,29170,29113,29144,1445,1309,2122,1428,1727,2592,1168,1190,979,966,1604,1691,29236,29201,2147483647,64716,65527,540,4001,7526,2201,51718,1,3,3,2
go to fist,16:56:08.383,29307,7180,3001,1735,979,1349,795,1599,1529,936,944,2605,3533,29201,29157,29122,29170,29118,1472,1309,2122,1480,1762,2619,1177,1204,997,958,1577,1735,29162,29271,2147483647,64718,65529,536,4001,7525,2200,51717,1,3,3,2
go to fist,16:56:08.484,29271,7176,3058,1753,1001,1349,782,1573,1582,905,931,2570,3541,29210,29153,29091,29078,29166,1498,1313,2091,1480,1744,2601,1173,1208,988,931,1625,1718,29179,29298,2147483647,64712,65529,539,4001,7523,2200,51716,1,3,3,2
go to fist,16:56:08.510,29241,7163,2988,1749,975,1318,821,1555,1568,922,958,2601,3515,29214,29104,29025,29074,29126,1463,1335,2113,1472,1779,2663,1168,1160,1037,962,1630,1709,29232,29223,2147483647,64718,65525,548,4001,7523,2200,51716,1,3,3,2
go to fist,16:56:08.683,29188,7149,2966,1757,1006,1349,821,1555,1560,958,940,2597,3550,29219,29153,29214,29166,29157,1498,1331,2091,1498,1753,2667,1208,1164,975,962,1621,1735,29232,29210,2147483647,64718,65526,541,4006,7523,2197,51717,1,3,3,2
go to fist,16:56:08.707,29258,7132,2975,1770,997,1375,839,1538,1520,953,962,2588,3585,29170,29135,29074,29162,29122,1472,1322,2126,1498,1749,2597,1182,1199,1019,971,1590,1709,29184,29219,2147483647,64718,65526,541,4006,7522,2197,51716,1,3,3,2
go to fist,16:56:08.884,29214,7163,2953,1753,997,1379,821,1542,1555,892,936,2597,3511,29175,29162,29153,29126,29210,1472,1287,2113,1463,1792,2597,1190,1208,975,993,1586,1665,29214,29188,2147483647,64714,65529,543,4006,7522,2197,51716,1,3,3,2
go to fist,16:56:08.907,29214,7158,2988,1806,984,1401,817,1577,1542,892,940,2610,3528,29175,29122,29197,29113,29148,1498,1305,2078,1463,1744,2641,1221,1230,988,997,1608,1678,29179,29245,2147483647,64714,65529,542,4006,7520,2196,51715,1,3,3,2
go to fist,16:56:09.083,29228,7141,3001,1788,979,1384,804,1551,1586,909,918,2592,3550,29197,29166,29276,29254,29091,1437,1283,2043,1476,1740,2610,1142,1195,1006,971,1577,1722,29135,29214,2147483647,64723,65534,549,4006,7512,2195,51711,1,3,3,2
go to fist,16:56:09.184,29210,7154,2997,1779,975,1375,812,1560,1564,953,944,2588,3563,29170,29162,29170,29140,29148,1467,1313,2135,1467,1749,2636,1173,1204,997,953,1595,1683,29201,29210,2147483647,64717,65527,541,4007,7505,2194,51707,1,3,3,2
go to fist,16:56:09.208,29236,7136,3067,1753,1023,1379,812,1542,1533,878,918,2557,3550,29166,29074,29078,29188,29140,1489,1331,2144,1419,1727,2597,1221,1212,1006,971,1604,1674,29223,29210,2147483647,64719,65530,541,4007,7500,2194,51704,1,3,3,2
go to fist,16:56:09.308,29188,7136,2975,1762,997,1371,769,1538,1564,900,922,2562,3515,29153,29153,29052,29065,29140,1476,1270,2091,1472,1753,2667,1199,1182,979,958,1582,1709,29206,29245,2147483647,64720,65526,550,4006,7496,2195,51702,1,3,3,2
go to fist,16:56:09.483,29166,7163,3001,1753,1001,1357,812,1524,1577,909,958,2610,3572,29214,29126,29104,29118,29144,1472,1362,2148,1458,1766,2627,1125,1151,1023,984,1612,1705,29170,29188,2147483647,64716,65527,540,4006,7492,2195,51700,1,3,3,2
go to fist,16:56:09.584,29241,7180,3001,1753,979,1349,808,1502,1551,856,979,2570,3546,29219,29271,29087,29153,29210,1476,1313,2091,1476,1792,2632,1173,1164,1001,1001,1595,1709,29162,29236,2147483647,64721,65527,542,4006,7490,2196,51699,1,3,3,2
go to fist,16:56:09.608,29241,7242,3058,1749,997,1406,786,1582,1542,896,936,2592,3555,29258,29166,29192,29184,29179,1441,1331,2118,1445,1766,2671,1195,1190,1010,1010,1643,1722,29210,29197,2147483647,64722,65527,543,4005,7487,2197,51697,1,3,3,2
go to fist,16:56:09.707,29228,7211,3062,1792,979,1331,764,1511,1524,852,958,2548,3555,29232,29184,29184,29232,29192,1480,1318,2122,1472,1735,2619,1182,1173,988,922,1582,1727,29210,29245,2147483647,64719,65527,542,4006,7480,2196,51694,1,3,3,2
go to fist,16:56:09.806,29188,7229,3084,1792,984,1393,764,1568,1533,896,975,2531,3559,29188,29153,29157,29157,29131,1485,1357,2122,1480,1766,2671,1208,1177,1045,958,1625,1762,29074,29241,2147483647,64722,65531,547,4005,7479,2197,51693,1,3,3,2
go to fist,16:56:09.984,29271,7264,3067,1722,984,1388,830,1595,1533,914,944,2562,3568,29210,29197,29104,29175,29232,1476,1349,2140,1467,1753,2671,1173,1212,984,971,1625,1700,29157,29232,2147483647,64720,65532,546,4005,7477,2197,51692,1,3,3,2
wait in fist,16:56:10.006,29188,7211,3089,1727,1010,1366,808,1529,1507,922,944,2548,3537,29223,29061,29223,29175,29122,1441,1318,2078,1458,1757,2667,1186,1155,1032,979,1582,1687,29175,29228,2147483647,64711,65530,542,4005,7475,2197,51691,1,3,3,2
wait in fist,16:56:10.183,29083,7264,3067,1770,988,1353,804,1529,1524,909,958,2583,3572,29285,29254,29210,29241,29258,1472,1331,2126,1480,1735,2636,1173,1190,997,962,1582,1722,29100,29126,2147483647,64717,65527,546,4006,7475,2198,51691,1,3,3,2
wait in fist,16:56:10.213,29192,7299,3102,1753,1006,1384,777,1542,1520,953,962,2575,3502,29170,29162,29153,29188,29179,1467,1349,2126,1472,1753,2658,1164,1173,1015,949,1617,1713,29206,29166,2147483647,64715,65526,546,4007,7474,2200,51691,1,3,3,2
wait in fist,16:56:10.384,29170,7264,3111,1749,997,1410,843,1524,1516,905,966,2566,3563,29201,29065,29223,29175,29184,1467,1313,2122,1454,1770,2680,1173,1204,1019,988,1586,1735,29201,29197,2147483647,64722,65525,548,4007,7473,2200,51691,1,3,3,2
wait in fist,16:56:10.496,29219,7286,3041,1779,988,1423,777,1524,1551,940,979,2566,3581,29201,29192,29250,29267,29162,1472,1327,2135,1476,1740,2667,1208,1230,1023,979,1599,1700,29179,29219,2147483647,64722,65525,547,4007,7467,2199,51687,1,3,3,2
wait in fist,16:56:10.583,29245,7255,3133,1762,958,1401,782,1524,1489,892,966,2579,3590,29206,29131,29126,29188,29087,1485,1327,2118,1472,1784,2645,1160,1190,1001,988,1608,1722,29170,29232,2147483647,64717,65523,546,4008,7460,2197,51683,1,3,3,2
wait in fist,16:56:10.812,29118,7290,3181,1757,997,1423,795,1502,1480,905,949,2583,3572,29184,29166,29162,29232,29144,1463,1327,2131,1450,1792,2632,1129,1208,1032,975,1621,1718,29223,29201,2147483647,64721,65523,559,3999,7429,2217,51668,1,3,3,2
wait in fist,16:56:11.021,29271,7303,3172,1749,1001,1384,791,1507,1516,900,975,2619,3581,29192,29228,29263,29254,29034,1489,1327,2122,1467,1722,2685,1190,1199,971,962,1599,1722,29232,29228,2147483647,64724,65521,548,3996,7419,2219,51662,1,3,3,2
wait in fist,16:56:11.238,29122,7400,3142,1749,1010,1397,799,1507,1507,909,940,2579,3616,29271,29258,29232,29210,29245,1480,1331,2162,1441,1832,2663,1182,1234,1032,953,1590,1757,29223,29008,2147483647,64730,65524,551,3993,7414,2227,51658,1,3,3,2
wait in fist,16:56:11.252,29241,7435,3212,1757,1006,1397,782,1533,1538,892,949,2623,3647,29232,29263,29232,29206,29245,1498,1357,2126,1476,1749,2689,1204,1212,1028,962,1617,1683,29135,29289,2147483647,64726,65518,554,3982,7403,2234,51651,1,3,3,2
wait in fist,16:56:11.484,29254,7356,3225,1797,975,1441,791,1498,1472,878,914,2636,3612,29192,29118,29175,29188,29170,1502,1318,2170,1450,1749,2658,1182,1226,966,1006,1617,1749,29135,29228,2147483647,64720,65520,557,3982,7398,2232,51648,1,3,3,2
wait in fist,16:56:11.704,29188,7417,3304,1744,993,1463,808,1458,1476,834,984,2610,3590,29285,29250,29122,29162,29236,1489,1335,2126,1507,1766,2720,1182,1186,949,997,1612,1713,29232,29192,2147483647,64733,65515,560,3978,7385,2238,51641,1,3,3,2
wait in fist,16:56:11.810,29179,7453,3317,1762,1019,1397,786,1507,1476,909,958,2570,3550,29197,29188,29118,29096,29267,1529,1327,2162,1485,1753,2724,1186,1195,1041,979,1608,1753,29210,29166,2147483647,64727,65520,559,3987,7370,2249,51638,1,3,3,2
wait in fist,16:56:11.928,29144,7439,3331,1740,984,1437,786,1485,1463,878,988,2583,3607,29241,29157,29157,29148,29162,1511,1313,2126,1485,1735,2693,1204,1177,979,997,1621,1731,29276,29271,2147483647,64730,65514,558,3994,7350,2263,51631,1,3,3,2
wait in fist,16:56:11.943,29219,7475,3313,1762,1032,1428,830,1507,1485,892,962,2610,3572,29210,29219,29056,29170,29192,1489,1331,2192,1489,1779,2724,1186,1234,1010,949,1612,1691,29232,29206,2147483647,64735,65509,560,3997,7346,2273,51631,1,3,3,2
wait in fist,16:56:12.021,29188,7501,3291,1775,1019,1384,808,1445,1454,896,931,2597,3660,29254,29228,29179,29228,29228,1511,1335,2197,1494,1770,2685,1182,1221,1010,988,1595,1700,29078,29166,2147483647,64731,65508,557,3994,7345,2270,51630,1,3,3,2
wait in fist,16:56:12.194,29188,7431,3265,1770,1015,1415,812,1533,1494,909,962,2605,3607,29289,29223,29175,29241,29267,1520,1335,2210,1498,1749,2645,1195,1239,1028,975,1617,1731,29043,29210,2147483647,64729,65510,560,3993,7340,2273,51627,1,3,3,2
wait in fist,16:56:12.217,29144,7426,3256,1788,993,1423,804,1480,1480,918,949,2623,3537,29280,29223,29179,29210,29263,1489,1353,2179,1480,1784,2663,1199,1199,1010,953,1634,1757,29144,29175,2147483647,64728,65511,558,3992,7341,2278,51629,1,3,3,2
wait in fist,16:56:12.426,29192,7422,3265,1770,988,1437,777,1511,1441,900,962,2544,3572,29175,29170,29069,29030,29197,1494,1353,2135,1498,1797,2724,1208,1182,1054,940,1647,1753,29140,29223,2147483647,64731,65509,556,3987,7350,2285,51633,1,3,3,2
wait in fist,16:56:12.783,29140,7391,3256,1775,940,1432,769,1485,1454,896,962,2504,3572,29210,29201,29087,29118,29228,1516,1375,2166,1485,1762,2680,1212,1182,993,988,1608,1735,29126,29140,2147483647,64728,65506,554,3998,7356,2283,51638,1,3,3,2
wait in fist,16:56:12.842,29118,7435,3309,1766,993,1441,786,1454,1476,878,949,2592,3577,29236,29192,29166,29144,29258,1502,1362,2157,1476,1779,2698,1212,1239,1019,1001,1577,1718,29021,29184,2147483647,64725,65512,558,3995,7358,2288,51640,1,3,3,2
wait in fist,16:56:13.203,29228,7395,3229,1779,979,1423,769,1463,1450,914,971,2544,3533,29241,29254,29166,29214,29236,1533,1327,2153,1485,1766,2702,1190,1160,993,984,1634,1718,29065,29241,2147483647,64726,65512,550,3991,7350,2297,51636,1,3,3,2
wait in fist,16:56:13.424,29197,7426,3247,1779,1001,1458,786,1472,1494,834,949,2544,3568,29219,29223,29140,29210,29236,1489,1313,2162,1489,1757,2689,1195,1173,979,940,1612,1705,29061,29206,2147483647,64728,65511,555,3991,7347,2296,51634,1,3,3,2
wait in fist,16:56:13.446,29109,7409,3221,1770,966,1445,769,1472,1406,922,966,2562,3581,29021,29307,29254,29197,29285,1494,1309,2170,1489,1766,2685,1182,1182,1015,1010,1621,1718,29179,29170,2147483647,64722,65511,557,3991,7347,2296,51634,1,3,3,2
wait in fist,16:56:13.595,29201,7400,3251,1770,979,1415,791,1480,1472,927,958,2531,3563,29250,29236,29214,29188,29263,1489,1327,2122,1441,1788,2663,1186,1208,993,975,1590,1735,29162,29201,2147483647,64732,65508,554,3991,7347,2296,51634,1,3,3,2
wait in fist,16:56:14.184,29113,7413,3260,1784,971,1388,808,1432,1472,896,944,2487,3585,29188,29263,29245,29223,29285,1485,1344,2122,1502,1727,2689,1190,1208,1059,953,1542,1718,29162,29153,2147483647,64724,65509,558,3991,7346,2296,51634,1,3,3,2
wait in fist,16:56:14.304,29153,7365,3238,1757,984,1428,804,1520,1458,900,944,2526,3559,29188,29175,29104,29153,29241,1489,1313,2192,1476,1792,2680,1173,1212,1006,962,1577,1687,29201,29184,2147483647,64727,65506,560,3993,7340,2297,51631,1,3,3,2
wait in fist,16:56:14.424,29263,7439,3287,1722,997,1410,821,1498,1476,892,971,2518,3612,29157,29228,29148,29201,29192,1498,1366,2166,1502,1779,2720,1217,1190,975,993,1608,1696,29175,29214,2147483647,64729,65509,559,3989,7339,2300,51630,1,3,3,2
wait in fist,16:56:14.694,29184,7400,3260,1735,1001,1397,786,1524,1454,865,949,2535,3625,29162,29254,29267,29210,29250,1511,1309,2162,1489,1770,2685,1212,1199,1001,966,1634,1753,29126,29223,2147483647,64731,65508,560,3992,7339,2299,51631,1,3,3,2
wait in fist,16:56:14.720,29096,7431,3229,1762,984,1441,817,1458,1463,931,953,2535,3563,29271,29263,29206,29232,29250,1524,1296,2157,1516,1810,2632,1204,1190,1028,979,1630,1735,29210,29131,2147483647,64727,65513,559,3990,7342,2301,51632,1,3,3,2
wait in fist,16:56:14.908,29162,7461,3265,1753,966,1441,786,1463,1467,909,975,2518,3555,29276,29236,29162,29184,29258,1472,1344,2140,1507,1766,2680,1208,1234,1037,940,1604,1718,29069,29219,2147483647,64726,65507,556,3987,7341,2303,51631,1,3,3,2
go to paper,16:56:14.921,29122,7395,3295,1770,997,1415,791,1494,1463,918,918,2509,3585,29122,29179,29140,29219,29214,1476,1300,2135,1458,1753,2654,1177,1217,993,997,1634,1718,29214,29170,2147483647,64723,65513,556,3991,7343,2299,51633,1,3,3,2
go to paper,16:56:15.124,29197,7435,3309,1770,1010,1437,817,1485,1485,900,979,2531,3559,29232,29210,29206,29148,29228,1502,1340,2135,1476,1749,2671,1221,1190,997,971,1608,1709,29245,29197,2147483647,64728,65508,560,3991,7342,2299,51632,1,3,3,2
go to paper,16:56:15.148,29293,7444,3247,1788,1023,1406,804,1498,1480,900,953,2518,3577,29197,29236,29206,29201,29236,1538,1335,2126,1511,1788,2693,1199,1186,1015,979,1647,1762,29210,29250,2147483647,64730,65510,560,3991,7343,2299,51633,1,3,3,2
go to paper,16:56:15.217,29096,7466,3234,1757,1037,1406,773,1441,1441,896,949,2518,3550,29214,29153,29201,29271,29188,1476,1313,2109,1450,1744,2680,1186,1204,962,984,1564,1674,29184,29140,2147483647,64728,65506,557,3992,7345,2301,51634,1,3,3,2
go to paper,16:56:15.494,29140,7431,3291,1775,975,1450,782,1445,1485,905,931,2531,3594,29201,29153,29179,29179,29126,1480,1296,2126,1489,1788,2693,1168,1186,1001,1001,1595,1691,29210,29184,2147483647,64727,65507,554,3991,7347,2302,51635,1,3,3,2
go to paper,16:56:15.634,29131,7374,3260,1740,1001,1472,804,1480,1463,896,953,2522,3585,29140,29074,29214,29179,29030,1502,1322,2131,1489,1753,2663,1182,1173,997,931,1630,1687,29157,29135,2147483647,64727,65510,564,3991,7347,2302,51635,1,3,3,2
go to paper,16:56:15.647,29250,7453,3265,1727,979,1410,764,1437,1463,883,949,2504,3585,29135,29197,29298,29280,29069,1524,1327,2148,1489,1770,2698,1204,1190,1001,984,1564,1740,29214,29254,2147483647,64728,65516,556,3994,7353,2305,51640,1,3,3,2
go to paper,16:56:15.800,28995,7413,3309,1762,962,1415,769,1485,1467,874,958,2562,3568,29223,29206,29228,29228,29210,1538,1322,2131,1450,1762,2689,1182,1212,1001,979,1612,1722,29113,28986,2147483647,64729,65508,550,3997,7360,2311,51645,1,3,3,2
go to paper,16:56:15.905,29034,7409,3247,1762,1010,1423,817,1476,1441,900,936,2460,3594,29250,29276,29210,29254,29250,1472,1313,2126,1489,1753,2680,1142,1186,1001,940,1630,1709,29069,29091,2147483647,64727,65514,555,3995,7372,2315,51652,1,3,3,2
go to paper,16:56:15.937,29184,7431,3278,1735,1006,1397,817,1507,1485,878,979,2487,3581,29166,29236,29210,29179,29219,1494,1309,2162,1476,1770,2693,1190,1182,997,944,1621,1705,29118,29100,2147483647,64723,65513,555,3994,7381,2317,51657,1,3,3,2
go to paper,16:56:16.093,29223,7435,3317,1753,1001,1476,812,1454,1472,874,944,2518,3656,29197,29228,29118,29170,29258,1502,1291,2074,1516,1731,2667,1212,1182,997,975,1604,1683,29311,29223,2147483647,64728,65504,551,3993,7381,2318,51656,1,3,3,2
go to paper,16:56:16.107,29201,7470,3273,1779,1041,1393,773,1502,1428,909,922,2456,3533,29206,29030,29258,29263,29069,1476,1296,2118,1454,1718,2685,1186,1212,997,971,1599,1713,29232,29241,2147483647,64726,65509,550,3992,7380,2318,51656,1,3,3,2
go to paper,16:56:16.208,29201,7470,3326,1744,1019,1437,834,1485,1437,900,975,2500,3577,29245,29263,29162,29210,29236,1489,1340,2122,1480,1749,2698,1151,1204,1028,971,1590,1727,29192,29241,2147483647,64737,65512,560,4001,7352,2293,51639,1,3,3,2
go to paper,16:56:16.323,29201,7523,3414,1762,997,1406,799,1507,1467,905,958,2553,3555,29197,29162,29078,29104,29153,1467,1296,2083,1472,1722,2685,1195,1221,1023,962,1608,1709,29192,29188,2147483647,64733,65519,554,4013,7321,2232,51616,1,3,3,2
go to paper,16:56:16.484,29157,7580,3440,1757,1019,1467,808,1489,1472,936,953,2570,3572,29232,29214,29188,29206,29228,1529,1353,2096,1507,1753,2707,1195,1182,1019,979,1604,1740,29131,29179,2147483647,64730,65524,566,4023,7307,2219,51610,1,3,3,2
go to paper,16:56:16.614,29241,7549,3476,1788,993,1415,777,1485,1450,927,936,2535,3585,29201,29285,29206,29153,29258,1494,1322,2118,1472,1700,2711,1168,1182,1028,962,1604,1669,29258,29206,2147483647,64731,65520,560,4031,7303,2213,51609,1,3,3,2
go to paper,16:56:16.784,29091,7664,3489,1797,971,1441,799,1560,1476,940,975,2522,3577,29109,29258,29214,29254,29214,1507,1296,2166,1476,1784,2746,1190,1195,1015,1019,1604,1722,29043,29122,2147483647,64739,65516,560,4033,7295,2211,51605,1,3,3,2
go to paper,16:56:16.984,29184,7562,3476,1762,997,1437,808,1573,1476,922,971,2544,3572,29179,29214,29104,29025,29197,1502,1309,2162,1454,1779,2711,1208,1186,975,979,1612,1722,29263,29245,2147483647,64737,65514,566,4035,7291,2210,51604,1,3,3,2
go to paper,16:56:17.124,29197,7545,3480,1797,1006,1450,821,1555,1450,892,949,2575,3616,29223,29271,29219,29236,29285,1489,1313,2157,1498,1788,2737,1155,1221,1028,979,1604,1709,29206,29201,2147483647,64733,65517,566,4035,7290,2209,51603,1,3,3,2
go to paper,16:56:17.214,29219,7576,3498,1775,984,1476,799,1599,1476,874,962,2526,3577,29166,29047,29210,29236,29034,1502,1331,2157,1502,1779,2737,1221,1190,1023,922,1604,1727,29232,29219,2147483647,64734,65512,564,4035,7296,2211,51606,1,3,3,2
go to paper,16:56:17.242,29223,7554,3414,1792,993,1423,786,1621,1476,914,949,2531,3585,29179,29201,29219,29175,29210,1480,1322,2126,1445,1779,2689,1164,1212,1006,966,1617,1731,29162,29223,2147483647,64733,65520,567,4036,7298,2211,51608,1,3,3,2
go to paper,16:56:17.326,29184,7549,3423,1775,1001,1450,804,1612,1476,892,971,2583,3638,29223,29179,29148,29153,29179,1467,1313,2140,1432,1744,2750,1173,1217,1001,953,1617,1713,29197,29201,2147483647,64731,65520,570,4035,7301,2212,51609,1,3,3,2
go to paper,16:56:17.501,29166,7602,3427,1775,1010,1428,843,1582,1480,883,953,2535,3607,29214,29236,29188,29228,29223,1472,1335,2131,1467,1744,2702,1208,1230,1032,975,1551,1718,29192,29197,2147483647,64731,65519,554,4035,7301,2212,51609,1,3,3,2
go to paper,16:56:17.624,29245,7576,3454,1788,1010,1423,786,1639,1511,896,975,2566,3559,29236,29258,29241,29219,29223,1494,1300,2144,1485,1718,2746,1204,1204,1001,984,1568,1744,29025,29232,2147483647,64736,65520,563,4035,7301,2212,51609,1,3,3,2
go to paper,16:56:17.704,29236,7519,3379,1753,975,1450,791,1599,1489,914,975,2570,3607,29210,29091,29293,29258,29069,1511,1305,2175,1472,1740,2737,1177,1195,1010,949,1582,1744,29232,29245,2147483647,64732,65520,559,4035,7302,2212,51610,1,3,3,2
go to paper,16:56:17.728,29254,7536,3414,1731,1010,1393,786,1656,1498,927,914,2583,3647,29210,29179,29188,29188,29122,1485,1296,2109,1507,1788,2768,1212,1182,1072,962,1612,1713,29131,29210,2147483647,64728,65522,571,4035,7302,2212,51610,1,3,3,2
go to paper,16:56:17.809,29236,7602,3366,1801,1010,1423,834,1678,1507,878,949,2562,3621,29210,29236,29201,29289,29250,1529,1335,2175,1485,1762,2750,1182,1195,1028,993,1608,1718,29219,29241,2147483647,64731,65517,569,4037,7305,2214,51612,1,3,3,2
go to paper,16:56:17.906,29140,7541,3449,1749,993,1406,795,1625,1538,900,975,2592,3607,29241,29228,29245,29210,29192,1445,1313,2166,1467,1766,2729,1199,1182,1015,993,1582,1722,29192,29236,2147483647,64741,65513,561,4039,7312,2223,51618,1,3,3,2
go to paper,16:56:18.008,29206,7523,3379,1766,1032,1450,804,1621,1511,892,984,2570,3568,29210,29197,29201,29184,29184,1463,1327,2153,1516,1735,2724,1168,1212,997,975,1595,1718,29197,29201,2147483647,64732,65521,568,4041,7323,2225,51625,1,3,3,2
go to paper,16:56:18.119,29153,7475,3396,1779,1001,1397,799,1669,1555,927,984,2570,3607,29166,29245,29258,29267,29258,1480,1296,2162,1494,1775,2768,1195,1199,1037,988,1612,1678,29206,29197,2147483647,64730,65517,566,4042,7331,2230,51630,1,3,3,2
go to paper,16:56:18.207,29228,7501,3353,1753,940,1432,786,1634,1498,909,975,2570,3643,29206,29241,29214,29206,29254,1494,1313,2153,1498,1775,2755,1182,1217,1001,975,1617,1678,29043,29219,2147483647,64731,65514,558,4042,7337,2233,51634,1,3,3,2
go to paper,16:56:18.384,29184,7466,3326,1753,988,1366,812,1696,1524,900,953,2535,3651,29258,29285,29254,29302,29289,1489,1274,2144,1472,1762,2724,1160,1212,1001,936,1612,1700,29197,29232,2147483647,64731,65517,559,4040,7348,2237,51640,1,3,3,2
go to paper,16:56:18.484,29210,7519,3353,1740,1019,1432,795,1608,1498,892,971,2544,3594,29197,29100,29184,29175,29144,1480,1296,2157,1480,1770,2724,1168,1217,1019,988,1612,1740,29223,29250,2147483647,64725,65515,556,4042,7358,2246,51646,1,3,3,2
go to paper,16:56:18.509,29140,7501,3353,1718,1006,1388,773,1617,1560,861,949,2540,3621,29245,29210,29232,29250,29232,1480,1309,2144,1494,1700,2733,1177,1195,988,940,1573,1709,29030,29162,2147483647,64727,65514,556,4042,7363,2250,51650,1,3,3,2
go to paper,16:56:18.608,29197,7541,3335,1762,971,1406,821,1634,1533,918,988,2557,3616,29157,29210,29144,29228,29241,1480,1300,2148,1458,1749,2742,1186,1221,1028,958,1590,1696,29091,29245,2147483647,64730,65515,549,4041,7370,2253,51654,1,3,3,2
go to paper,16:56:18.708,29166,7400,3357,1762,1001,1388,817,1608,1551,909,962,2548,3581,29228,29228,29197,29192,29250,1437,1300,2148,1498,1749,2755,1182,1212,984,953,1604,1683,29043,29223,2147483647,64728,65510,555,4040,7374,2254,51656,1,3,3,2
go to paper,16:56:18.884,29118,7479,3317,1770,1015,1397,804,1665,1555,918,949,2583,3572,29043,29245,29179,29228,29263,1489,1313,2100,1467,1770,2715,1195,1204,1019,975,1608,1683,29258,29214,2147483647,64731,65517,557,4041,7368,2255,51653,1,3,3,2
go to paper,16:56:18.984,29184,7479,3317,1753,1081,1397,834,1621,1520,900,927,2579,3594,29184,29197,29175,29201,29241,1489,1305,2223,1467,1775,2693,1208,1208,958,958,1577,1691,29144,29188,2147483647,64728,65517,553,4043,7361,2261,51651,1,3,3,2
go to paper,16:56:19.095,29100,7483,3309,1744,1015,1419,782,1639,1542,909,927,2583,3581,29122,29254,29122,29192,29254,1472,1291,2175,1480,1762,2733,1151,1230,975,1015,1599,1665,29122,29091,2147483647,64724,65518,556,4043,7357,2262,51649,1,3,3,2
go to paper,16:56:19.204,29109,7453,3269,1762,1015,1432,817,1647,1516,944,958,2632,3616,29074,29223,29232,29245,29219,1437,1296,2175,1458,1779,2702,1199,1208,979,966,1590,1713,29214,29104,2147483647,64727,65516,556,4042,7352,2262,51646,1,3,3,2
go to paper,16:56:19.284,29153,7501,3282,1753,1032,1428,817,1617,1516,896,927,2627,3621,29271,29276,29170,29140,29214,1498,1300,2188,1489,1705,2685,1199,1199,1006,958,1604,1678,29047,29170,2147483647,64731,65516,559,4041,7349,2264,51645,1,3,3,2
go to paper,16:56:19.384,29241,7422,3317,1735,1001,1379,834,1696,1542,892,975,2597,3621,29236,29236,29232,29210,29210,1494,1309,2201,1485,1744,2702,1168,1190,979,997,1577,1722,29069,29201,2147483647,64731,65514,558,4039,7347,2261,51643,1,3,3,2
go to paper,16:56:19.409,29276,7413,3322,1749,1010,1432,826,1656,1542,927,979,2548,3621,29245,29228,29210,29232,29214,1516,1305,2184,1502,1788,2755,1151,1199,1006,975,1599,1700,29003,29250,2147483647,64724,65520,552,4037,7343,2258,51639,1,3,3,2
go to paper,16:56:19.516,29153,7483,3309,1735,1006,1371,773,1647,1533,922,940,2579,3577,29122,29223,29228,29245,29267,1467,1287,2166,1498,1779,2768,1190,1190,1037,1006,1577,1735,29175,29113,2147483647,64725,65512,556,4037,7337,2259,51636,1,3,3,2
go to paper,16:56:19.684,29276,7417,3322,1740,1028,1384,839,1661,1564,905,975,2610,3581,29245,29162,29250,29179,29179,1507,1313,2188,1454,1823,2768,1212,1168,1028,979,1551,1709,29135,29285,2147483647,64727,65518,561,4037,7332,2259,51634,1,3,3,2
go to paper,16:56:19.784,29241,7400,3322,1779,997,1397,795,1617,1586,909,936,2614,3563,29201,29206,29219,29206,29241,1480,1313,2157,1467,1845,2790,1164,1199,997,966,1560,1757,28981,29236,2147483647,64727,65521,560,4037,7329,2259,51632,1,3,3,2
go to paper,16:56:19.884,29241,7444,3295,1779,1001,1419,821,1687,1604,905,936,2614,3581,29214,29254,29184,29214,29241,1524,1353,2188,1472,1792,2790,1195,1164,1001,966,1599,1775,29197,29258,2147483647,64731,65518,565,4035,7329,2255,51631,1,3,3,2
go to paper,16:56:19.984,29250,7457,3309,1779,1015,1423,786,1639,1555,931,953,2605,3559,29228,29210,29236,29210,29236,1498,1287,2166,1489,1766,2830,1199,1199,1001,958,1595,1696,29030,29223,2147483647,64732,65514,558,4033,7327,2249,51628,1,3,3,2
rest in paper,16:56:20.008,29258,7475,3339,1810,1001,1357,791,1630,1604,931,962,2685,3506,29267,29175,29293,29245,29192,1472,1291,2135,1467,1806,2834,1195,1199,1023,975,1617,1744,29118,29263,2147483647,64729,65519,557,4031,7329,2245,51628,1,3,3,2
rest in paper,16:56:20.184,29201,7492,3256,1731,1028,1401,856,1652,1617,852,971,2654,3537,29214,29162,29188,29210,29192,1498,1296,2162,1511,1779,2772,1221,1186,988,993,1599,1722,29043,29267,2147483647,64726,65521,564,4025,7334,2236,51628,1,3,3,2
rest in paper,16:56:20.216,29280,7409,3317,1749,1001,1379,826,1665,1608,918,936,2724,3559,29214,29175,29263,29232,29184,1485,1322,2175,1432,1797,2834,1186,1208,1006,949,1612,1727,29061,29293,2147483647,64732,65520,557,4022,7338,2231,51628,1,3,3,2
rest in paper,16:56:20.384,29271,7435,3313,1757,1006,1384,817,1621,1573,909,931,2676,3541,29219,29166,29254,29267,29184,1463,1371,2184,1445,1779,2830,1248,1221,1015,958,1625,1722,29030,29285,2147483647,64723,65525,555,4018,7339,2222,51626,1,3,3,2
rest in paper,16:56:20.484,29232,7453,3291,1757,988,1379,826,1661,1621,900,927,2641,3520,29228,29188,29232,29263,29175,1480,1331,2170,1480,1775,2816,1239,1230,1019,1010,1621,1766,29140,29271,2147483647,64735,65523,564,4019,7343,2215,51627,1,3,3,2
rest in paper,16:56:20.585,29232,7382,3309,1788,997,1406,839,1647,1604,870,962,2645,3563,29223,29228,29258,29236,29223,1476,1379,2109,1480,1784,2838,1226,1217,1015,975,1608,1700,29021,29250,2147483647,64730,65525,555,4016,7354,2217,51632,1,3,3,2
rest in paper,16:56:20.684,29162,7439,3247,1744,979,1393,808,1639,1568,940,927,2645,3559,29140,29245,29228,29263,29254,1480,1318,2184,1480,1823,2812,1248,1212,1010,962,1582,1678,29056,29122,2147483647,64736,65521,556,4005,7360,2212,51632,1,3,3,2
rest in paper,16:56:20.784,29250,7444,3304,1762,975,1309,791,1669,1608,918,940,2645,3555,29201,29245,29214,29254,29140,1463,1296,2153,1511,1731,2852,1199,1208,975,958,1630,1687,29069,29236,2147483647,64726,65520,558,4006,7364,2213,51634,1,3,3,2
rest in paper,16:56:20.884,29285,7439,3251,1762,1023,1353,821,1630,1555,966,953,2632,3555,29228,29206,29219,29197,29236,1489,1309,2166,1458,1749,2838,1248,1204,1015,966,1599,1683,29056,29307,2147483647,64727,65520,563,4012,7369,2210,51638,1,3,3,2
rest in paper,16:56:20.994,29201,7365,3256,1753,997,1384,812,1665,1617,931,936,2649,3524,29267,29157,29197,29223,29206,1511,1318,2188,1458,1810,2830,1221,1208,979,936,1546,1696,29034,29263,2147483647,64725,65517,553,4015,7372,2214,51641,1,3,3,2
rest in paper,16:56:21.084,29162,7435,3234,1749,988,1397,821,1647,1630,900,953,2680,3515,29206,29017,29219,29267,29043,1472,1309,2188,1485,1797,2790,1226,1182,1023,1001,1586,1678,29258,29206,2147483647,64737,65523,559,4021,7375,2223,51646,1,3,3,2
rest in paper,16:56:21.184,29258,7374,3304,1735,984,1362,821,1634,1568,931,971,2614,3511,29144,29126,29219,29206,29153,1489,1331,2157,1489,1775,2860,1208,1195,975,953,1577,1713,29104,29170,2147483647,64720,65520,546,4039,7377,2226,51652,1,3,3,2
rest in paper,16:56:21.284,29223,7400,3251,1718,993,1388,804,1634,1604,944,966,2601,3550,29228,29223,29241,29250,29175,1472,1305,2166,1472,1757,2808,1195,1226,958,940,1582,1709,29144,29192,2147483647,64730,65527,550,4054,7388,2220,51662,1,3,3,2
rest in paper,16:56:21.384,29236,7378,3221,1735,1023,1375,804,1643,1604,909,975,2597,3484,29210,29236,29184,29250,29188,1489,1331,2113,1485,1814,2768,1173,1230,971,984,1595,1705,29140,29271,2147483647,64724,65524,555,4059,7393,2230,51668,1,3,3,2
rest in paper,16:56:21.406,29245,7356,3243,1797,997,1357,782,1687,1639,922,988,2614,3476,29241,29201,29241,29250,29214,1467,1327,2157,1458,1792,2755,1204,1195,1023,958,1612,1700,29109,29254,2147483647,64722,65525,547,4059,7400,2239,51673,1,3,3,2
rest in paper,16:56:21.584,29228,7369,3238,1806,975,1366,795,1643,1573,900,918,2619,3533,29148,29179,29087,29153,29184,1494,1331,2100,1489,1792,2808,1142,1199,984,953,1595,1678,29148,29232,2147483647,64723,65520,555,4058,7407,2243,51677,1,3,3,2
rest in paper,16:56:21.685,29144,7391,3243,1788,993,1371,826,1674,1595,922,962,2583,3533,29228,29232,29206,29232,29188,1467,1344,2175,1467,1788,2750,1221,1177,1037,975,1595,1727,29148,29214,2147483647,64723,65523,551,4057,7407,2244,51677,1,3,3,2
rest in paper,16:56:21.784,29254,7325,3208,1784,1001,1371,799,1634,1595,900,962,2566,3493,29214,29214,29210,29170,29245,1480,1318,2126,1472,1762,2803,1186,1195,1037,958,1608,1722,29126,29228,2147483647,64724,65520,546,4056,7407,2247,51677,1,3,3,2
rest in paper,16:56:21.819,29109,7290,3216,1784,993,1371,808,1661,1608,900,953,2601,3484,29179,29228,29210,29232,29210,1437,1318,2144,1476,1779,2790,1204,1212,979,940,1595,1757,29078,29201,2147483647,64729,65527,548,4056,7402,2247,51674,1,3,3,2
rest in paper,16:56:21.906,29166,7321,3177,1749,975,1340,839,1608,1612,905,958,2597,3476,29197,29250,29210,29197,29228,1472,1283,2148,1458,1770,2768,1217,1204,993,971,1621,1691,29188,29201,2147483647,64714,65518,544,4062,7399,2244,51674,1,3,3,2
rest in paper,16:56:22.009,29184,7308,3203,1735,1001,1397,804,1634,1564,905,953,2575,3471,29250,29232,29206,29250,29184,1467,1335,2162,1445,1766,2737,1221,1190,1015,944,1604,1713,29100,29197,2147483647,64721,65520,552,4069,7398,2234,51674,1,3,3,2
rest in paper,16:56:22.108,29157,7312,3194,1779,975,1357,773,1621,1604,905,949,2597,3493,29250,29236,29250,29271,29192,1476,1300,2188,1450,1766,2803,1195,1208,1010,984,1586,1705,29170,29210,2147483647,64722,65530,551,4069,7397,2234,51674,1,3,3,2
rest in paper,16:56:22.209,29192,7356,3168,1744,997,1357,795,1595,1573,900,966,2566,3498,29267,29206,29179,29206,29148,1480,1313,2148,1485,1797,2772,1212,1182,1006,958,1617,1709,29135,29236,2147483647,64730,65526,554,4069,7397,2234,51674,1,3,3,2
rest in paper,16:56:22.384,29043,7378,3150,1757,975,1309,817,1643,1590,909,905,2570,3489,29298,29236,29232,29258,29258,1454,1296,2153,1458,1740,2737,1195,1186,997,962,1586,1696,29201,29109,2147483647,64726,65525,554,4069,7398,2234,51674,1,3,3,2
rest in paper,16:56:22.484,29083,7334,3190,1757,1001,1384,861,1625,1599,905,984,2557,3528,29254,29219,29214,29232,29223,1507,1322,2157,1480,1779,2746,1212,1190,993,949,1546,1709,29113,29083,2147483647,64721,65529,548,4070,7394,2233,51672,1,3,3,2
rest in paper,16:56:22.584,29131,7347,3172,1709,997,1362,821,1617,1604,918,979,2566,3511,29276,29245,29245,29289,29206,1472,1291,2144,1450,1806,2781,1190,1239,1015,944,1608,1705,29118,29021,2147483647,64721,65528,552,4070,7393,2233,51671,1,3,3,2
rest in paper,16:56:22.684,29113,7325,3194,1797,1001,1366,808,1625,1604,909,966,2570,3520,29245,29250,29302,29236,29206,1467,1344,2184,1480,1766,2764,1182,1234,1023,931,1590,1674,29078,29153,2147483647,64718,65526,550,4070,7391,2232,51670,1,3,3,2
rest in paper,16:56:22.784,29047,7347,3194,1806,1037,1366,812,1617,1639,918,962,2518,3528,29250,29170,29293,29241,29271,1458,1296,2157,1437,1753,2777,1204,1190,940,953,1568,1713,29144,28999,2147483647,64731,65521,558,4070,7388,2230,51668,1,3,3,2
rest in paper,16:56:22.884,29206,7365,3172,1775,1006,1366,804,1560,1560,896,966,2562,3511,29153,29157,29144,29179,29153,1489,1300,2148,1476,1687,2746,1142,1212,1015,944,1595,1687,29184,29197,2147483647,64725,65521,556,4070,7386,2229,51667,1,3,3,2
rest in paper,16:56:22.984,29140,7330,3203,1722,1015,1388,812,1652,1599,909,936,2579,3484,29254,29232,29285,29302,29245,1472,1331,2170,1472,1753,2803,1195,1226,936,949,1604,1705,29091,29061,2147483647,64729,65525,556,4070,7386,2229,51667,1,3,3,2
rest in paper,16:56:23.084,29052,7308,3221,1722,966,1366,817,1630,1599,914,936,2544,3467,29285,29201,29228,29206,29236,1502,1300,2135,1524,1784,2768,1182,1195,993,966,1582,1700,29043,29175,2147483647,64722,65528,548,4071,7384,2228,51666,1,3,3,2
rest in paper,16:56:23.185,29043,7343,3164,1757,988,1353,795,1617,1582,905,931,2575,3493,29280,29245,29228,29232,29267,1458,1296,2148,1467,1766,2799,1177,1190,1023,936,1608,1709,29087,29047,2147483647,64721,65523,554,4071,7382,2227,51665,1,3,3,2
rest in paper,16:56:23.284,29017,7290,3159,1766,997,1335,843,1639,1612,914,944,2522,3511,29232,29232,29219,29236,29197,1458,1318,2135,1476,1770,2750,1177,1204,966,931,1573,1705,29034,29096,2147483647,64729,65525,559,4070,7384,2228,51666,1,3,3,2
rest in paper,16:56:23.394,29047,7308,3203,1753,1015,1384,830,1634,1608,927,993,2575,3493,29271,29280,29236,29250,29241,1472,1305,2153,1480,1762,2808,1190,1208,971,962,1590,1691,29091,29008,2147483647,64724,65528,558,4070,7384,2228,51666,1,3,3,2
rest in paper,16:56:23.484,29236,7356,3199,1753,1023,1410,821,1608,1612,922,949,2601,3484,29214,29135,29210,29170,29100,1489,1283,2144,1476,1792,2786,1186,1204,984,1001,1599,1700,29170,29206,2147483647,64723,65521,552,4071,7385,2228,51667,1,3,3,2
rest in paper,16:56:23.508,29166,7360,3164,1766,997,1349,826,1630,1586,909,936,2535,3498,29280,29170,29214,29228,29188,1480,1270,2175,1476,1753,2777,1234,1212,1006,949,1617,1744,29135,29126,2147483647,64721,65531,559,4078,7387,2224,51670,1,3,3,2
rest in paper,16:56:23.684,29232,7360,3190,1753,1001,1349,791,1612,1568,874,962,2553,3515,29258,29184,29179,29214,29162,1472,1305,2135,1450,1749,2746,1199,1177,1019,958,1582,1705,29069,29021,2147483647,64723,65522,547,4083,7392,2225,51673,1,3,3,2
rest in paper,16:56:23.784,29104,7330,3164,1757,993,1366,821,1604,1560,966,966,2588,3432,29276,29271,29192,29223,29289,1463,1287,2148,1441,1801,2759,1195,1199,1006,993,1612,1727,29056,29109,2147483647,64726,65526,551,4082,7399,2227,51678,1,3,3,2
rest in paper,16:56:23.885,29170,7343,3137,1757,1015,1349,804,1612,1577,887,971,2575,3476,29254,29184,29214,29197,29184,1489,1305,2122,1494,1744,2755,1177,1208,988,944,1582,1735,29039,29104,2147483647,64726,65526,553,4082,7405,2228,51681,1,3,3,2
rest in paper,16:56:23.984,29074,7374,3216,1766,971,1366,791,1604,1612,905,953,2535,3484,29298,29153,29184,29179,29232,1454,1300,2153,1494,1788,2764,1221,1208,1015,944,1634,1709,29113,29113,2147483647,64721,65526,550,4086,7406,2230,51682,1,3,3,2
rest in paper,16:56:24.084,29034,7316,3164,1757,979,1366,791,1604,1533,918,979,2566,3471,29289,29214,29236,29223,29192,1476,1335,2118,1476,1713,2737,1221,1230,988,914,1577,1718,29131,29069,2147483647,64721,65526,552,4085,7408,2230,51684,1,3,3,2
rest in paper,16:56:24.184,29113,7321,3164,1797,984,1327,799,1612,1604,896,918,2540,3467,29263,29267,29179,29148,29162,1480,1278,2166,1472,1779,2746,1226,1173,997,922,1621,1713,29140,29175,2147483647,64722,65524,550,4084,7415,2232,51688,1,3,3,2
rest in paper,16:56:24.285,29104,7330,3159,1766,1015,1375,812,1608,1546,887,931,2531,3480,29223,29258,29223,29188,29192,1502,1327,2118,1476,1762,2764,1190,1195,1015,993,1599,1713,29135,29179,2147483647,64724,65521,547,4083,7421,2235,51692,1,3,3,2
rest in paper,16:56:24.384,29135,7330,3172,1753,1010,1362,799,1586,1582,905,966,2588,3502,29258,29223,29206,29170,29258,1458,1300,2153,1485,1749,2799,1199,1186,988,931,1599,1731,29047,29144,2147483647,64725,65525,550,4084,7430,2237,51696,1,3,3,2
rest in paper,16:56:24.484,29131,7330,3168,1735,997,1384,782,1604,1599,878,944,2553,3489,29206,29214,29219,29201,29223,1485,1305,2118,1485,1766,2777,1186,1217,1010,958,1595,1665,29144,29157,2147483647,64724,65527,550,4084,7431,2239,51697,1,3,3,2
rest in paper,16:56:24.594,29109,7316,3150,1766,997,1353,834,1639,1568,909,993,2553,3471,29162,29210,29166,29188,29289,1472,1313,2122,1450,1749,2724,1182,1204,997,962,1590,1683,29113,29153,2147483647,64725,65526,549,4084,7431,2239,51697,1,3,3,2
rest in paper,16:56:24.622,29267,7303,3177,1762,988,1401,791,1634,1604,905,958,2540,3506,29206,29144,29170,29188,29192,1445,1291,2118,1480,1788,2772,1177,1221,993,971,1573,1691,29162,29232,2147483647,64720,65526,551,4093,7428,2233,51697,1,3,3,2
rest in paper,16:56:24.784,29214,7308,3168,1757,966,1362,799,1630,1604,883,927,2540,3506,29250,29236,29148,29157,29241,1480,1296,2166,1489,1749,2715,1182,1199,997,927,1608,1687,29192,29263,2147483647,64721,65528,554,4097,7422,2229,51694,1,3,3,2
rest in paper,16:56:24.884,29219,7316,3181,1744,1028,1340,821,1608,1582,892,962,2509,3445,29162,29091,29197,29263,29170,1485,1300,2104,1485,1762,2777,1125,1239,1001,971,1577,1696,28968,29197,2147483647,64726,65528,557,4097,7422,2229,51694,1,3,3,2
rest in paper,16:56:24.984,29021,7360,3212,1727,1010,1397,808,1612,1586,927,922,2531,3462,29201,29232,29250,29188,29201,1458,1300,2113,1441,1753,2746,1177,1204,1028,940,1634,1696,29096,28981,2147483647,64721,65528,550,4097,7421,2227,51693,1,3,3,2
go to fist,16:56:25.085,29126,7347,3168,1731,971,1322,804,1608,1560,900,936,2509,3467,29214,29214,29214,29166,29236,1441,1287,2170,1467,1792,2724,1190,1168,988,975,1595,1740,29100,29087,2147483647,64721,65520,556,4094,7421,2221,51691,1,3,3,2
go to fist,16:56:25.184,29219,7325,3159,1722,975,1322,791,1617,1595,896,918,2540,3489,29232,29184,29223,29232,29263,1485,1296,2131,1467,1735,2759,1204,1204,993,936,1612,1691,29087,29061,2147483647,64723,65522,550,4094,7420,2215,51690,1,3,3,2
go to fist,16:56:25.304,29131,7343,3133,1753,971,1322,791,1586,1573,878,927,2579,3493,29223,29250,29232,29280,29245,1498,1327,2184,1494,1762,2733,1199,1173,1019,979,1599,1718,29083,29122,2147483647,64724,65526,553,4093,7420,2219,51690,1,3,3,2
go to fist,16:56:25.385,29118,7347,3150,1770,1010,1349,821,1634,1542,918,958,2526,3432,29162,29153,29228,29206,29197,1498,1291,2157,1494,1775,2755,1199,1226,997,953,1595,1696,29043,29214,2147483647,64731,65525,556,4089,7420,2223,51690,1,3,3,2
go to fist,16:56:25.484,29135,7338,3142,1735,971,1384,804,1599,1595,878,949,2557,3498,29263,29241,29263,29263,29241,1480,1318,2140,1467,1806,2729,1173,1168,962,971,1590,1691,29061,29179,2147483647,64727,65523,553,4089,7419,2223,51689,1,3,3,2
go to fist,16:56:25.584,29131,7334,3172,1735,979,1375,791,1617,1568,883,944,2531,3489,29175,29219,29153,29192,29162,1476,1287,2140,1467,1766,2733,1212,1208,993,962,1573,1669,29113,29153,2147483647,64725,65525,552,4089,7418,2223,51689,1,3,3,2
go to fist,16:56:25.694,29131,7303,3194,1735,958,1349,830,1652,1577,896,936,2535,3502,29197,29241,29206,29254,29263,1476,1305,2109,1480,1749,2746,1199,1208,971,984,1604,1691,29030,29157,2147483647,64727,65523,558,4089,7415,2222,51687,1,3,3,2
go to fist,16:56:25.785,29232,7356,3203,1744,975,1344,808,1634,1621,900,927,2557,3462,29162,29170,29109,29153,29170,1419,1322,2153,1450,1691,2803,1186,1212,1010,949,1577,1691,29162,29206,2147483647,64729,65523,556,4082,7414,2227,51685,1,3,3,2
go to fist,16:56:25.884,29245,7378,3194,1753,975,1353,812,1590,1599,887,944,2557,3498,29162,29184,29052,29157,29184,1476,1287,2131,1520,1727,2764,1182,1195,988,958,1582,1727,29192,29250,2147483647,64726,65525,555,4079,7414,2229,51685,1,3,3,2
go to fist,16:56:25.984,29140,7369,3194,1757,997,1366,804,1599,1625,900,966,2544,3506,29201,29188,29166,29197,29179,1476,1327,2184,1498,1735,2768,1142,1204,1001,953,1555,1705,29100,29201,2147483647,64723,65521,545,4079,7415,2231,51685,1,3,3,2
go to fist,16:56:26.084,29192,7325,3199,1744,1015,1349,773,1595,1555,896,975,2544,3528,29201,29197,29250,29258,29201,1472,1327,2184,1511,1749,2764,1177,1190,1010,931,1551,1665,29118,29166,2147483647,64721,65525,551,4074,7418,2234,51686,1,3,3,2
go to fist,16:56:26.185,29201,7365,3177,1762,984,1353,786,1595,1546,905,936,2553,3471,29197,29267,29223,29254,29245,1450,1261,2184,1463,1709,2715,1186,1182,997,971,1573,1744,29126,29135,2147483647,64731,65518,551,4070,7417,2241,51686,1,3,3,2
go to fist,16:56:26.284,29140,7334,3234,1757,949,1384,812,1604,1595,900,975,2583,3511,29219,29228,29210,29210,29241,1441,1305,2170,1463,1731,2733,1190,1195,993,958,1595,1700,29135,29122,2147483647,64722,65520,551,4069,7419,2242,51686,1,3,3,2
go to fist,16:56:26.307,29206,7395,3221,1770,979,1353,812,1630,1590,900,918,2566,3502,29228,29245,29223,29188,29223,1428,1287,2140,1463,1749,2759,1208,1212,979,949,1568,1669,29188,29201,2147483647,64722,65517,556,4069,7420,2242,51687,1,3,3,2
go to fist,16:56:26.485,29135,7343,3159,1788,979,1384,826,1612,1573,874,971,2601,3493,29228,29250,29214,29228,29293,1476,1344,2166,1445,1757,2698,1164,1217,1015,944,1577,1696,29197,29206,2147483647,64720,65519,547,4069,7422,2243,51688,1,3,3,2
go to fist,16:56:26.585,29170,7334,3194,1797,984,1349,773,1625,1577,922,931,2649,3524,29276,29210,29236,29298,29236,1476,1300,2140,1467,1713,2755,1168,1212,979,944,1555,1705,29118,29192,2147483647,64721,65514,542,4069,7424,2253,51691,1,3,3,2
go to fist,16:56:26.609,29188,7343,3208,1762,966,1388,808,1669,1529,944,971,2636,3511,29223,29166,29197,29192,29197,1445,1318,2228,1502,1700,2720,1226,1186,984,953,1621,1696,29100,29153,2147483647,64728,65520,549,4070,7428,2265,51696,1,3,3,2
go to fist,16:56:26.784,29223,7365,3208,1779,966,1371,769,1617,1604,940,958,2698,3498,29223,29245,29162,29192,29267,1454,1313,2131,1458,1762,2803,1195,1248,975,918,1617,1691,28995,29241,2147483647,64720,65518,544,4074,7438,2284,51705,1,3,3,2
go to fist,16:56:26.885,29140,7400,3216,1788,984,1366,808,1590,1590,909,940,2619,3498,29254,29280,29179,29210,29302,1458,1313,2188,1498,1762,2794,1195,1190,984,953,1612,1678,29104,29131,2147483647,64722,65519,552,4075,7437,2288,51706,1,3,3,2
go to fist,16:56:26.906,29148,7334,3164,1810,1006,1349,812,1568,1533,896,900,2627,3506,29223,29263,29228,29258,29289,1480,1309,2157,1458,1718,2737,1204,1221,953,993,1577,1727,29113,29175,2147483647,64722,65518,547,4077,7434,2291,51705,1,3,3,2
go to fist,16:56:27.084,29197,7343,3181,1766,993,1349,812,1586,1573,892,971,2645,3502,29206,29298,29214,29170,29236,1419,1274,2166,1472,1722,2737,1168,1186,1006,979,1599,1687,29061,29148,2147483647,64720,65522,549,4079,7436,2304,51709,1,3,3,2
go to fist,16:56:27.184,29113,7343,3181,1678,979,1397,799,1599,1529,905,931,2671,3515,29254,29245,29258,29267,29293,1467,1265,2184,1480,1661,2707,1177,1199,997,922,1582,1674,29122,29162,2147483647,64721,65515,547,4084,7437,2318,51713,1,3,3,2
go to fist,16:56:27.285,29206,7338,3199,1797,993,1353,782,1608,1573,918,936,2645,3489,29184,29206,29140,29140,29166,1480,1327,2157,1485,1753,2720,1212,1199,1015,962,1617,1700,29219,29210,2147483647,64716,65515,542,4084,7438,2321,51714,1,3,3,2
go to fist,16:56:27.309,29091,7343,3238,1753,1019,1371,799,1564,1555,922,931,2636,3515,29232,29236,29214,29232,29289,1454,1322,2228,1485,1731,2786,1168,1182,1037,993,1595,1722,29043,29157,2147483647,64714,65513,547,4084,7437,2327,51714,1,3,3,2
go to fist,16:56:27.484,29078,7334,3212,1735,988,1397,769,1568,1546,909,944,2632,3520,29271,29184,29214,29197,29280,1507,1305,2184,1441,1735,2777,1168,1173,979,966,1617,1709,29104,29091,2147483647,64720,65516,538,4087,7435,2331,51715,1,3,3,2
go to fist,16:56:27.508,29069,7325,3190,1779,975,1379,821,1582,1604,883,966,2623,3533,29285,29276,29241,29271,29271,1458,1331,2157,1454,1757,2772,1217,1195,1001,953,1643,1727,29162,29083,2147483647,64725,65520,540,4090,7434,2338,51716,1,3,3,2
go to fist,16:56:27.685,29135,7360,3172,1814,1006,1362,786,1630,1542,900,927,2575,3524,29285,29144,29214,29232,29236,1463,1313,2166,1467,1705,2746,1168,1208,1019,936,1612,1705,29126,29144,2147483647,64718,65518,544,4091,7434,2337,51717,1,3,3,2
go to fist,16:56:27.783,29087,7387,3234,1792,975,1393,786,1595,1542,900,984,2605,3506,29267,29289,29267,29280,29298,1476,1291,2179,1489,1749,2790,1177,1177,979,944,1625,1678,29188,29140,2147483647,64715,65513,550,4095,7434,2335,51718,1,3,3,2
go to fist,16:56:27.883,29135,7360,3225,1770,1006,1375,830,1599,1511,892,931,2583,3546,29232,29271,29285,29232,29258,1445,1318,2188,1445,1740,2764,1177,1221,988,944,1595,1687,29118,29170,2147483647,64718,65515,547,4095,7434,2335,51718,1,3,3,2
go to fist,16:56:27.984,29083,7360,3168,1784,962,1401,808,1599,1524,878,953,2605,3528,29285,29228,29223,29285,29250,1463,1305,2162,1467,1740,2755,1182,1212,1015,949,1586,1700,29148,29140,2147483647,64716,65521,546,4095,7435,2336,51718,1,3,3,2
go to fist,16:56:28.084,29285,7360,3216,1770,1001,1406,799,1599,1564,927,936,2570,3515,29236,29170,28968,29039,29162,1458,1296,2241,1437,1722,2737,1173,1177,1010,931,1595,1661,29144,29245,2147483647,64716,65519,550,4094,7436,2335,51718,1,3,3,2
go to fist,16:56:28.183,29135,7417,3225,1775,975,1384,830,1599,1529,927,944,2605,3537,29245,29206,29192,29271,29280,1511,1322,2166,1502,1740,2790,1182,1221,1006,979,1573,1713,29170,29118,2147483647,64719,65517,549,4096,7434,2332,51717,1,3,3,2
go to fist,16:56:28.283,29175,7431,3247,1788,971,1393,826,1577,1551,918,966,2562,3533,29258,29210,29245,29263,29188,1463,1291,2236,1472,1749,2750,1208,1182,997,962,1599,1687,29135,29162,2147483647,64714,65517,542,4098,7435,2331,51718,1,3,3,2
go to fist,16:56:28.309,29153,7391,3247,1810,962,1397,773,1586,1538,896,949,2605,3541,29250,29170,29245,29267,29188,1445,1309,2254,1454,1740,2755,1151,1195,988,944,1586,1700,29228,29162,2147483647,64723,65517,543,4097,7436,2332,51719,1,3,3,2
go to fist,16:56:28.493,29175,7369,3282,1740,988,1428,804,1568,1573,905,953,2583,3537,29271,29241,29276,29263,29219,1480,1313,2184,1480,1696,2759,1186,1160,1019,962,1612,1678,29153,29113,2147483647,64720,65512,547,4096,7436,2332,51719,1,3,3,2
go to fist,16:56:28.583,29254,7395,3186,1770,988,1362,804,1617,1524,918,958,2605,3546,29122,29162,29179,29192,29148,1458,1274,2210,1507,1766,2825,1195,1164,993,953,1595,1722,29206,29228,2147483647,64715,65514,541,4096,7441,2333,51721,1,3,3,2
go to fist,16:56:28.693,29087,7382,3238,1770,1015,1397,804,1542,1520,931,966,2601,3594,29219,29245,29263,29214,29214,1445,1344,2210,1511,1744,2755,1204,1168,988,958,1586,1709,29276,29096,2147483647,64719,65518,546,4095,7442,2334,51722,1,3,3,2
go to fist,16:56:28.784,29206,7395,3260,1749,993,1467,812,1586,1516,922,953,2562,3559,29228,29140,29157,29170,29126,1476,1296,2219,1467,1784,2720,1173,1133,1001,971,1608,1722,29223,29206,2147483647,64720,65519,547,4095,7444,2334,51723,1,3,3,2
go to fist,16:56:28.884,29148,7400,3269,1770,1001,1393,817,1560,1502,892,940,2562,3533,29267,29267,29236,29263,29236,1472,1327,2153,1450,1753,2720,1168,1217,988,940,1608,1700,29162,29135,2147483647,64727,65525,547,4095,7443,2334,51722,1,3,3,2
go to fist,16:56:28.983,29188,7448,3234,1770,988,1410,791,1568,1511,883,931,2605,3568,29162,29157,29254,29250,29157,1463,1309,2179,1476,1731,2742,1186,1160,1028,966,1604,1722,29170,29170,2147483647,64718,65524,551,4094,7444,2332,51722,1,3,3,2
go to fist,16:56:29.084,29148,7409,3269,1762,988,1432,804,1538,1520,905,971,2575,3585,29232,29285,29280,29254,29280,1489,1300,2179,1480,1722,2759,1182,1230,984,966,1573,1700,29236,29175,2147483647,64718,65518,541,4094,7444,2332,51722,1,3,3,2
go to fist,16:56:29.184,29228,7444,3322,1757,1010,1393,795,1560,1507,865,922,2579,3581,29131,29166,29175,29135,29188,1450,1313,2179,1480,1700,2737,1186,1199,971,1006,1590,1709,29052,29254,2147483647,64726,65516,547,4094,7446,2332,51723,1,3,3,2
go to fist,16:56:29.283,29131,7475,3348,1788,971,1393,773,1542,1494,936,944,2579,3599,29184,29258,29258,29241,29245,1476,1300,2170,1458,1731,2750,1204,1221,1001,962,1604,1687,29184,29118,2147483647,64718,65517,547,4093,7448,2332,51724,1,3,3,2
go to fist,16:56:29.393,29091,7466,3317,1753,984,1366,808,1546,1445,878,936,2588,3599,29206,29250,29258,29219,29232,1467,1340,2126,1458,1762,2737,1190,1212,979,940,1595,1713,29135,29153,2147483647,64720,65521,547,4092,7448,2331,51724,1,3,3,2
go to fist,16:56:29.484,29236,7466,3326,1779,1015,1463,786,1520,1511,878,931,2553,3563,29166,29170,29206,29201,29197,1441,1287,2170,1476,1744,2711,1217,1199,1028,949,1586,1696,29271,29236,2147483647,64720,65521,548,4090,7450,2326,51723,1,3,3,2
go to fist,16:56:29.508,29140,7470,3344,1744,1006,1441,830,1564,1595,909,944,2583,3585,29245,29241,29263,29276,29245,1494,1287,2162,1472,1744,2720,1182,1168,1028,931,1582,1705,29184,29104,2147483647,64722,65519,547,4088,7445,2320,51719,1,3,3,2
go to fist,16:56:29.684,29302,7514,3401,1762,1010,1401,791,1498,1463,918,962,2544,3612,29179,29148,29083,29113,29131,1467,1278,2126,1445,1753,2750,1160,1195,997,997,1590,1687,29329,29210,2147483647,64717,65524,548,4080,7435,2320,51711,1,3,3,2
go to fist,16:56:29.717,29192,7558,3357,1770,997,1450,804,1524,1476,905,975,2548,3616,29223,29170,29223,29166,29153,1458,1265,2192,1441,1744,2777,1199,1195,1006,944,1617,1691,29245,29228,2147483647,64720,65520,550,4078,7430,2317,51707,1,3,3,2
rest in fist,16:56:30.013,29091,7549,3454,1744,993,1423,808,1502,1472,892,962,2509,3585,29263,29271,29192,29245,29258,1476,1305,2157,1489,1757,2821,1212,1186,993,984,1625,1722,29091,29074,2147483647,64721,65521,551,4064,7423,2323,51701,1,3,3,2
rest in fist,16:56:30.093,29245,7602,3423,1775,988,1428,795,1507,1480,927,975,2557,3594,29162,29184,29289,29289,29148,1494,1287,2179,1476,1753,2790,1204,1226,1006,953,1599,1700,29175,29236,2147483647,64726,65518,548,4065,7412,2324,51695,1,3,3,2
rest in fist,16:56:30.224,29263,7567,3405,1749,997,1437,826,1485,1423,870,971,2553,3594,29219,29188,29175,29210,29188,1485,1322,2170,1476,1753,2764,1204,1221,997,936,1625,1740,29324,29280,2147483647,64717,65514,546,4068,7405,2324,51692,1,3,3,2
rest in fist,16:56:30.308,29179,7602,3462,1788,975,1415,804,1498,1467,878,984,2553,3585,29179,29188,29100,29241,29285,1498,1327,2197,1480,1766,2764,1173,1226,1015,958,1599,1696,29131,29144,2147483647,64717,65511,547,4076,7392,2350,51692,1,3,3,2
rest in fist,16:56:31.425,29232,7567,3480,1757,1023,1437,791,1454,1437,914,984,2553,3568,29170,29201,29179,29223,29148,1489,1313,2192,1463,1713,2790,1182,1199,962,975,1582,1683,29267,29192,2147483647,64719,65509,543,4083,7428,2405,51723,1,3,3,2
rest in fist,16:56:31.625,29214,7584,3445,1792,997,1401,773,1480,1441,914,922,2540,3537,29135,29223,29184,29302,29258,1524,1313,2179,1454,1749,2764,1199,1217,1015,962,1639,1718,29126,29170,2147483647,64720,65505,547,4082,7434,2412,51727,1,3,3,2
rest in fist,16:56:31.995,29140,7562,3440,1770,993,1406,852,1507,1458,874,958,2540,3581,29232,29258,29192,29184,29228,1511,1357,2148,1494,1753,2772,1221,1230,984,949,1595,1749,29166,29214,2147483647,64716,65509,550,4083,7429,2410,51724,1,3,3,2
rest in fist,16:56:32.114,29280,7589,3449,1788,1010,1415,817,1480,1423,909,931,2496,3528,29210,29157,29285,29267,29175,1507,1331,2166,1472,1749,2834,1177,1138,975,979,1612,1757,29166,29219,2147483647,64719,65504,544,4083,7428,2410,51724,1,3,3,2
rest in fist,16:56:32.142,29254,7541,3445,1797,1010,1410,804,1494,1502,918,971,2522,3515,29162,29223,29289,29228,29250,1498,1331,2170,1529,1744,2794,1182,1212,997,975,1630,1674,29232,29307,2147483647,64718,65502,542,4086,7429,2403,51724,1,3,3,2
rest in fist,16:56:32.293,29311,7576,3462,1766,984,1437,817,1476,1423,878,944,2535,3541,29219,29192,29153,29135,29206,1489,1331,2197,1480,1705,2759,1173,1234,993,958,1604,1669,29135,29280,2147483647,64719,65509,549,4086,7429,2403,51724,1,3,3,2
rest in fist,16:56:32.414,29258,7576,3458,1735,975,1445,812,1507,1480,887,944,2522,3577,29162,29219,29166,29140,29214,1467,1327,2201,1480,1731,2768,1186,1217,1001,971,1639,1696,29188,29250,2147483647,64726,65510,547,4087,7426,2402,51722,1,3,3,2
rest in fist,16:56:32.504,29254,7606,3506,1749,958,1432,808,1494,1467,900,949,2482,3555,29192,29170,29153,29162,29254,1502,1344,2144,1458,1770,2759,1182,1230,993,949,1582,1669,29175,29250,2147483647,64722,65514,543,4086,7424,2400,51720,1,3,3,2
rest in fist,16:56:32.814,29263,7554,3493,1797,1028,1441,799,1502,1437,896,966,2526,3563,29285,29206,29170,29201,29223,1507,1322,2201,1507,1713,2816,1182,1226,1028,962,1674,1696,29065,29245,2147483647,64719,65509,552,4087,7416,2397,51716,1,3,3,2
rest in fist,16:56:32.924,29285,7637,3458,1775,1001,1458,808,1511,1458,887,958,2504,3546,29232,29293,29241,29206,29324,1516,1305,2179,1489,1749,2768,1129,1199,962,984,1630,1731,29083,29285,2147483647,64718,65511,551,4087,7419,2397,51718,1,3,3,2
rest in fist,16:56:33.294,29293,7589,3458,1753,993,1454,808,1463,1450,878,971,2531,3546,29197,29241,29131,29118,29258,1507,1318,2131,1463,1744,2755,1199,1204,975,966,1586,1683,29047,29254,2147483647,64720,65512,548,4086,7418,2398,51717,1,3,3,2
rest in fist,16:56:33.393,29188,7554,3414,1792,1019,1441,799,1463,1445,909,940,2518,3572,29254,29175,29113,29157,29170,1516,1331,2223,1507,1762,2768,1177,1186,997,931,1604,1709,29175,29219,2147483647,64715,65505,553,4085,7418,2396,51716,1,3,3,2
rest in fist,16:56:33.514,29241,7589,3423,1753,1059,1423,786,1476,1441,909,944,2504,3511,29302,29250,29219,29206,29223,1458,1331,2131,1472,1757,2759,1168,1190,997,936,1608,1683,29263,29254,2147483647,64721,65506,550,4084,7425,2398,51720,1,3,3,2
rest in fist,16:56:33.894,29258,7541,3462,1806,1001,1454,799,1467,1419,918,962,2496,3537,29170,29104,29144,29118,29210,1476,1344,2153,1472,1727,2755,1221,1199,997,966,1573,1718,29162,29250,2147483647,64725,65506,550,4083,7431,2399,51723,1,3,3,2
rest in fist,16:56:33.920,29258,7558,3449,1788,953,1419,821,1463,1450,874,922,2504,3621,29232,29267,29162,29148,29302,1520,1296,2192,1472,1784,2764,1146,1190,1054,984,1625,1713,29254,29280,2147483647,64723,65509,545,4093,7449,2416,51739,1,3,3,2
rest in fist,16:56:34.183,29228,7576,3462,1770,997,1458,755,1516,1454,892,953,2513,3559,29179,28999,29206,29197,29052,1502,1313,2214,1485,1770,2768,1190,1182,1023,984,1634,1674,29258,29214,2147483647,64720,65505,544,4094,7449,2417,51739,1,3,3,2
rest in fist,16:56:34.415,29289,7598,3432,1784,975,1437,804,1480,1437,896,962,2518,3550,29280,29241,29254,29241,29285,1507,1371,2170,1480,1713,2733,1160,1195,1010,993,1621,1700,29140,29228,2147483647,64721,65514,545,4093,7449,2416,51739,1,3,3,2
rest in fist,16:56:34.514,29245,7549,3432,1766,1019,1419,791,1494,1428,949,949,2509,3524,29192,29091,29201,29219,29104,1498,1313,2197,1472,1744,2746,1151,1212,988,962,1604,1687,29201,29236,2147483647,64720,65508,549,4105,7453,2406,51743,1,3,3,2
rest in fist,16:56:34.593,29228,7536,3436,1788,1006,1423,773,1494,1441,914,958,2504,3502,29258,29126,29188,29056,29126,1445,1287,2153,1511,1753,2772,1146,1177,971,958,1546,1722,29228,29236,2147483647,64719,65514,542,4105,7454,2406,51744,1,3,3,2
rest in fist,16:56:34.714,29254,7571,3423,1784,1010,1441,804,1489,1458,918,953,2496,3515,29258,29148,29144,29113,29206,1467,1318,2148,1454,1718,2720,1168,1160,984,940,1599,1713,29122,29245,2147483647,64724,65511,554,4105,7456,2407,51745,1,3,3,2
rest in fist,16:56:34.903,29206,7580,3440,1757,984,1406,760,1476,1472,918,962,2482,3524,29201,29118,28986,29061,29126,1485,1309,2179,1467,1779,2768,1155,1221,1015,949,1612,1713,29206,29188,2147483647,64722,65509,541,4105,7456,2407,51744,1,3,3,2
rest in fist,16:56:35.015,29289,7571,3436,1740,953,1445,769,1498,1401,914,936,2487,3493,29157,29188,29179,29122,29157,1502,1296,2179,1476,1749,2794,1186,1217,1015,962,1634,1713,29192,29298,2147483647,64719,65513,548,4101,7448,2401,51738,1,3,3,2
go to paper,16:56:35.038,29236,7567,3427,1731,1010,1423,804,1494,1410,931,975,2509,3585,29236,29170,29175,29232,29166,1485,1283,2157,1498,1753,2720,1164,1164,1001,953,1590,1700,29162,29206,2147483647,64727,65514,549,4101,7441,2401,51734,1,3,3,2
go to paper,16:56:35.302,29157,7567,3388,1770,1001,1463,786,1485,1423,874,914,2487,3502,29206,29206,29201,29197,29228,1494,1305,2083,1463,1766,2786,1164,1168,1041,953,1577,1700,29223,29214,2147483647,64716,65515,546,4102,7424,2399,51725,1,3,3,2
go to paper,16:56:35.394,29267,7580,3471,1762,975,1393,799,1507,1437,865,962,2487,3577,29289,29276,29254,29184,29236,1520,1313,2131,1472,1749,2750,1173,1182,988,953,1590,1691,29232,29311,2147483647,64721,65510,546,4102,7419,2399,51722,1,3,3,2
go to paper,16:56:35.708,29228,7558,3498,1775,984,1432,808,1485,1441,887,962,2522,3506,29228,29223,29148,29228,29223,1511,1261,2153,1437,1722,2720,1146,1212,1023,958,1560,1691,29232,29245,2147483647,64720,65514,560,4100,7413,2395,51718,1,3,3,2
go to paper,16:56:36.094,29254,7571,3432,1766,971,1419,760,1485,1441,887,971,2504,3581,29148,29175,29232,29083,29188,1485,1327,2175,1476,1744,2799,1168,1190,997,975,1582,1718,29201,29258,2147483647,64719,65516,554,4101,7394,2393,51708,1,3,3,2
go to paper,16:56:36.185,29148,7738,3643,1792,993,1445,817,1507,1454,861,958,2526,3603,29228,29219,29153,29197,29210,1511,1353,2148,1516,1762,2878,1195,1217,993,993,1612,1718,29069,29170,2147483647,64735,65528,553,4097,7442,2307,51718,1,3,3,2
go to paper,16:56:36.225,29100,7795,3687,1770,1015,1467,808,1560,1450,887,936,2535,3568,29210,29206,29017,29087,29263,1502,1309,2197,1480,1753,2926,1182,1212,984,936,1630,1709,29206,29034,2147483647,64715,65522,569,4119,7448,2294,51725,1,3,3,2
go to paper,16:56:36.308,29228,7800,3678,1735,1023,1441,760,1529,1467,905,931,2535,3537,29162,29210,29219,29254,29206,1516,1327,2140,1489,1775,2874,1190,1182,975,971,1617,1718,29083,29219,2147483647,64715,65521,541,4134,7441,2303,51728,1,3,3,2
go to paper,16:56:36.408,29223,7760,3634,1722,1001,1454,782,1524,1432,909,984,2531,3585,29144,29039,29175,29241,29030,1489,1305,2153,1498,1757,2838,1168,1182,979,958,1586,1718,29131,29214,2147483647,64712,65521,543,4134,7444,2307,51731,1,3,3,2
go to paper,16:56:36.584,29179,7765,3621,1770,1001,1445,839,1595,1467,852,944,2496,3590,29162,29135,29219,29232,29118,1502,1287,2153,1472,1722,2830,1208,1164,1019,936,1595,1683,29214,29201,2147483647,64716,65525,547,4134,7450,2312,51734,1,3,3,2
go to paper,16:56:36.613,29188,7738,3638,1766,1010,1467,769,1599,1516,900,936,2491,3568,29175,29131,29175,29214,29210,1498,1335,2140,1480,1735,2852,1190,1190,984,979,1573,1656,29210,29210,2147483647,64719,65527,546,4132,7458,2316,51739,1,3,3,2
go to paper,16:56:36.706,29210,7747,3678,1762,1032,1437,799,1582,1450,905,931,2452,3599,29206,29140,29241,29241,29228,1489,1283,2175,1507,1788,2852,1195,1177,1019,958,1590,1731,29166,29232,2147483647,64723,65524,547,4135,7458,2315,51739,1,3,3,2
go to paper,16:56:36.808,29140,7765,3621,1766,993,1489,804,1617,1472,918,944,2522,3572,29245,29162,29223,29250,29175,1467,1305,2157,1458,1740,2843,1177,1195,988,971,1573,1718,29285,29241,2147483647,64726,65527,545,4138,7456,2321,51740,1,3,3,2
go to paper,16:56:36.907,29223,7716,3581,1788,958,1428,812,1647,1485,905,931,2513,3590,29179,29197,29197,29241,29170,1467,1270,2100,1472,1740,2825,1177,1217,966,984,1599,1687,29214,29228,2147483647,64721,65527,548,4139,7452,2320,51738,1,3,3,2
go to paper,16:56:37.007,29210,7703,3607,1757,988,1445,808,1687,1520,892,962,2500,3590,29219,29210,29175,29179,29192,1494,1305,2175,1467,1749,2860,1208,1182,1067,944,1577,1722,29192,29250,2147483647,64715,65523,543,4141,7447,2319,51736,1,3,3,2
go to paper,16:56:37.118,29280,7712,3541,1788,962,1441,755,1634,1498,892,979,2535,3568,29210,29245,29166,29135,29241,1476,1335,2184,1454,1775,2852,1217,1190,1028,966,1608,1722,29039,29184,2147483647,64718,65525,548,4142,7442,2318,51732,1,3,3,2
go to paper,16:56:37.208,29258,7655,3511,1797,1019,1423,795,1656,1538,878,949,2548,3607,29206,29223,29223,29228,29219,1489,1278,2188,1516,1766,2913,1186,1186,962,1001,1634,1744,29162,29245,2147483647,64723,65523,545,4141,7439,2318,51731,1,3,3,2
go to paper,16:56:37.307,29219,7655,3537,1801,1023,1432,821,1599,1507,918,940,2579,3651,29157,29175,29188,29197,29179,1467,1327,2153,1467,1766,2838,1186,1226,988,988,1582,1731,29223,29192,2147483647,64726,65526,543,4142,7437,2318,51729,1,3,3,2
go to paper,16:56:37.483,29241,7664,3498,1797,988,1428,786,1674,1520,861,966,2531,3643,29140,29179,29214,29210,29214,1485,1305,2157,1485,1744,2869,1195,1195,971,971,1595,1727,29179,29254,2147483647,64723,65530,549,4144,7431,2315,51727,1,3,3,2
go to paper,16:56:37.508,29162,7664,3515,1779,1023,1428,799,1661,1502,870,940,2526,3594,29113,29188,29223,29170,29179,1472,1322,2140,1485,1744,2830,1142,1217,1010,1019,1625,1674,29166,29210,2147483647,64720,65523,547,4144,7429,2315,51725,1,3,3,2
go to paper,16:56:37.629,29170,7593,3493,1740,1041,1406,791,1656,1524,905,988,2522,3616,29122,29206,29250,29258,29157,1467,1274,2192,1467,1718,2869,1160,1177,1028,988,1595,1718,29140,29214,2147483647,64719,65528,547,4139,7419,2312,51719,1,3,3,2
go to paper,16:56:37.784,29245,7576,3454,1766,1019,1454,834,1665,1560,914,922,2566,3568,29254,29311,29135,29162,29329,1454,1305,2131,1472,1709,2847,1160,1208,997,958,1608,1700,29065,29219,2147483647,64725,65523,557,4139,7413,2310,51715,1,3,3,2
go to paper,16:56:37.883,29245,7615,3498,1784,1001,1384,808,1621,1551,918,931,2513,3581,29179,29201,29219,29267,29175,1489,1287,2188,1463,1749,2838,1146,1151,1006,953,1604,1674,29206,29236,2147483647,64723,65528,551,4138,7410,2306,51713,1,3,3,2
go to paper,16:56:37.984,29210,7602,3449,1779,997,1428,782,1621,1511,909,949,2504,3621,29153,29210,29175,29179,29192,1494,1287,2214,1511,1784,2830,1164,1195,979,936,1595,1696,29175,29206,2147483647,64719,65524,550,4138,7411,2306,51713,1,3,3,2
go to paper,16:56:38.008,29219,7602,3480,1749,979,1445,795,1656,1502,905,909,2522,3555,29219,29241,29047,29074,29206,1498,1335,2223,1485,1744,2834,1217,1168,1006,949,1586,1705,29250,29228,2147483647,64725,65527,547,4138,7408,2306,51712,1,3,3,2
go to paper,16:56:38.119,29197,7593,3410,1784,984,1401,786,1647,1529,892,940,2553,3550,29258,29214,29254,29228,29197,1498,1371,2214,1467,1757,2895,1164,1182,993,997,1573,1709,28986,29214,2147483647,64722,65523,555,4138,7408,2306,51712,1,3,3,2
go to paper,16:56:38.284,29197,7571,3476,1779,993,1388,747,1630,1555,887,953,2548,3577,29206,29263,29223,29276,29228,1450,1296,2210,1463,1762,2887,1168,1230,1006,953,1555,1753,29021,29232,2147483647,64722,65523,550,4141,7407,2304,51712,1,3,3,2
go to paper,16:56:38.384,29206,7589,3436,1740,993,1401,804,1678,1511,905,931,2562,3563,29118,29184,29034,29052,29162,1454,1274,2188,1498,1713,2843,1212,1195,984,997,1564,1735,29241,29214,2147483647,64719,65524,551,4141,7408,2304,51712,1,3,3,2
go to paper,16:56:38.504,29184,7584,3449,1788,979,1419,786,1661,1546,887,966,2566,3528,29140,29214,29052,29109,29206,1472,1291,2184,1498,1753,2860,1186,1186,1010,962,1608,1674,29162,29210,2147483647,64722,65524,553,4141,7409,2304,51713,1,3,3,2
go to paper,16:56:38.541,29135,7576,3423,1749,1001,1423,782,1639,1546,896,997,2588,3493,28999,29214,29197,29206,29206,1472,1309,2219,1472,1779,2852,1173,1212,1010,966,1604,1727,29280,29162,2147483647,64722,65522,550,4143,7412,2306,51716,1,3,3,2
go to paper,16:56:38.684,29263,7541,3423,1784,966,1375,817,1665,1551,892,971,2623,3585,29206,29175,29087,29131,29228,1472,1318,2219,1498,1740,2834,1212,1208,1045,966,1612,1744,29162,29236,2147483647,64718,65530,547,4143,7420,2310,51721,1,3,3,2
go to paper,16:56:38.784,29170,7558,3423,1766,1015,1393,769,1661,1551,909,975,2562,3520,29153,29192,28995,29140,29135,1489,1283,2201,1494,1762,2900,1204,1208,997,931,1599,1700,29245,29157,2147483647,64720,65529,552,4144,7426,2314,51724,1,3,3,2
go to paper,16:56:38.884,29170,7554,3379,1810,988,1428,812,1678,1520,900,984,2605,3555,29157,29175,29118,29069,29197,1467,1291,2157,1450,1762,2852,1190,1239,1001,931,1538,1705,29210,29153,2147483647,64719,65526,545,4146,7430,2314,51727,1,3,3,2
go to paper,16:56:38.918,29228,7571,3445,1757,984,1401,808,1656,1507,865,931,2575,3506,29245,29236,29069,29140,29241,1463,1296,2223,1516,1779,2843,1186,1221,1006,971,1617,1709,29047,29236,2147483647,64717,65529,557,4152,7435,2313,51732,1,3,3,2
go to paper,16:56:39.084,29188,7562,3427,1775,997,1406,843,1683,1538,905,940,2575,3550,29122,29170,29135,29140,29153,1511,1322,2179,1450,1766,2856,1217,1230,988,962,1577,1718,29140,29188,2147483647,64720,65526,544,4157,7440,2322,51737,1,3,3,2
go to paper,16:56:39.184,29210,7545,3432,1779,1010,1419,808,1647,1524,909,944,2605,3541,29179,29175,29118,29126,29179,1472,1283,2197,1454,1744,2869,1190,1164,1010,966,1612,1718,29144,29223,2147483647,64726,65528,541,4158,7442,2330,51740,1,3,3,2
go to paper,16:56:39.207,29188,7589,3454,1766,975,1419,817,1656,1573,900,997,2627,3520,29162,29162,29122,29126,29206,1458,1305,2184,1476,1792,2878,1190,1186,1006,936,1604,1727,29175,29241,2147483647,64725,65525,554,4157,7444,2330,51741,1,3,3,2
go to paper,16:56:39.305,29214,7562,3396,1784,988,1419,834,1643,1577,927,971,2592,3550,29184,29258,29210,29201,29206,1476,1313,2197,1520,1718,2922,1190,1204,1050,936,1573,1722,29184,29236,2147483647,64722,65522,543,4158,7442,2330,51740,1,3,3,2
go to paper,16:56:39.407,29197,7532,3383,1757,971,1419,826,1647,1560,896,940,2605,3528,29131,29179,29113,29135,29192,1494,1318,2188,1489,1744,2882,1226,1177,962,918,1604,1709,29179,29170,2147483647,64723,65525,551,4158,7440,2329,51738,1,3,3,2
go to paper,16:56:39.508,29232,7523,3383,1766,1001,1419,791,1661,1568,909,949,2535,3524,29166,29175,29052,29188,29214,1454,1313,2188,1494,1770,2913,1177,1199,997,975,1643,1700,29175,29201,2147483647,64724,65522,547,4158,7440,2329,51738,1,3,3,2
go to paper,16:56:39.620,29188,7541,3379,1779,1023,1401,764,1656,1590,900,984,2562,3524,29126,29188,29091,29039,29214,1467,1296,2223,1472,1770,2878,1208,1204,1023,966,1604,1678,29175,29219,2147483647,64726,65525,547,4158,7439,2329,51738,1,3,3,2
go to paper,16:56:39.711,29175,7545,3375,1766,997,1419,817,1617,1542,931,936,2526,3506,29184,29192,29153,29131,29201,1450,1278,2228,1507,1766,2852,1195,1155,993,914,1617,1678,29162,29175,2147483647,64718,65530,556,4160,7439,2327,51739,1,3,3,2
go to paper,16:56:39.809,29170,7497,3313,1753,988,1428,804,1617,1599,944,936,2500,3520,29170,29144,29104,29113,29144,1467,1309,2236,1485,1744,2874,1217,1248,940,953,1577,1705,29170,29140,2147483647,64715,65528,553,4161,7438,2327,51738,1,3,3,2
go to paper,16:56:39.923,29162,7510,3295,1753,1023,1406,830,1639,1582,878,958,2513,3546,29087,29236,29113,29122,29232,1476,1309,2214,1485,1700,2887,1221,1199,984,1006,1573,1722,29210,29188,2147483647,64720,65528,543,4160,7443,2328,51740,1,3,3,2
rest in paper,16:56:40.007,29219,7501,3317,1779,988,1384,812,1608,1542,918,984,2548,3489,29250,29175,29153,29148,29201,1472,1331,2162,1458,1762,2878,1182,1226,1015,940,1590,1691,29166,29162,2147483647,64720,65524,546,4158,7445,2325,51740,1,3,3,2
rest in paper,16:56:40.115,29276,7488,3361,1784,975,1384,817,1656,1608,896,975,2518,3515,29236,29228,29131,29131,29223,1472,1287,2201,1467,1735,2869,1199,1221,1006,940,1573,1696,29021,29298,2147483647,64717,65527,543,4155,7445,2319,51738,1,3,3,2
rest in paper,16:56:40.208,29153,7444,3304,1779,1015,1362,821,1656,1555,900,958,2482,3533,29126,29170,29012,29104,29184,1485,1313,2188,1476,1753,2821,1186,1168,958,962,1612,1661,29241,29166,2147483647,64714,65528,546,4153,7447,2317,51739,1,3,3,2
rest in paper,16:56:40.309,29175,7475,3375,1749,997,1406,786,1656,1577,900,975,2518,3480,29210,29206,29034,29056,29228,1472,1309,2170,1489,1757,2887,1177,1177,1045,962,1590,1731,29228,29210,2147483647,64724,65530,548,4153,7448,2316,51739,1,3,3,2
rest in paper,16:56:40.408,29126,7475,3366,1757,975,1344,804,1630,1582,922,936,2557,3498,29175,29206,29078,29113,29148,1432,1296,2219,1450,1770,2887,1182,1204,1015,962,1573,1691,29258,29179,2147483647,64724,65524,543,4152,7449,2315,51739,1,3,3,2
rest in paper,16:56:40.508,29223,7483,3273,1757,993,1401,821,1683,1555,914,962,2522,3546,29241,29219,29021,29083,29166,1494,1283,2241,1489,1770,2895,1208,1173,1037,944,1595,1735,29148,29184,2147483647,64718,65531,550,4152,7446,2313,51737,1,3,3,2
rest in paper,16:56:40.684,29232,7510,3357,1744,979,1406,817,1634,1639,905,940,2531,3511,29197,29166,29096,29197,29184,1502,1313,2219,1507,1775,2869,1190,1204,993,958,1568,1727,29271,29280,2147483647,64720,65534,546,4152,7445,2312,51737,1,3,3,2
rest in paper,16:56:40.784,29197,7488,3287,1749,988,1366,817,1621,1564,918,958,2509,3541,29197,29214,29245,29201,29179,1450,1313,2184,1467,1762,2869,1186,1173,993,971,1612,1722,29017,29214,2147483647,64718,65530,545,4148,7445,2312,51736,1,3,3,2
rest in paper,16:56:40.885,29188,7519,3304,1792,971,1401,782,1643,1625,887,944,2469,3524,29232,29263,29162,29162,29254,1494,1296,2228,1511,1713,2860,1221,1239,971,918,1555,1731,29131,29153,2147483647,64718,65526,546,4148,7445,2312,51736,1,3,3,2
rest in paper,16:56:40.984,29219,7457,3370,1762,988,1384,795,1630,1560,927,918,2513,3484,29175,29131,29236,29232,29083,1524,1313,2219,1458,1762,2882,1248,1195,1001,953,1595,1749,29153,29219,2147483647,64717,65525,550,4148,7445,2312,51736,1,3,3,2
rest in paper,16:56:41.084,29219,7523,3317,1749,993,1401,786,1647,1546,914,931,2526,3484,29210,29214,29228,29175,29170,1467,1322,2219,1489,1788,2891,1221,1204,975,971,1625,1683,29192,29219,2147483647,64731,65524,558,4147,7443,2308,51733,1,3,3,2
rest in paper,16:56:41.110,29197,7505,3357,1775,1010,1384,821,1665,1617,900,966,2465,3537,29140,29157,29135,29162,29219,1485,1305,2197,1467,1749,2922,1212,1208,1019,975,1595,1749,29118,29192,2147483647,64734,65517,558,4149,7417,2276,51715,1,3,3,2
rest in paper,16:56:41.284,29188,7514,3309,1779,1006,1388,782,1669,1595,892,966,2504,3502,29135,29126,29166,29210,29118,1502,1243,2250,1467,1753,2922,1252,1217,1006,966,1582,1731,29162,29140,2147483647,64724,65535,534,4159,7418,2269,51717,1,3,3,2
rest in paper,16:56:41.306,29162,7488,3295,1757,988,1349,812,1647,1582,883,979,2465,3506,29126,29144,29232,29153,29113,1485,1274,2267,1458,1696,2939,1234,1212,997,966,1560,1740,29148,29228,2147483647,64716,65524,561,4170,7425,2257,51722,1,3,3,2
rest in paper,16:56:41.484,29206,7422,3287,1775,984,1397,839,1652,1582,878,971,2482,3511,29184,29162,29223,29206,29166,1498,1322,2206,1494,1727,2917,1212,1186,1015,922,1595,1727,29197,29232,2147483647,64719,65530,557,4175,7427,2259,51725,1,3,3,2
rest in paper,16:56:41.583,29162,7426,3225,1762,1019,1379,764,1621,1617,922,953,2487,3458,29126,29170,29175,29228,29126,1520,1270,2228,1463,1757,2931,1195,1204,1001,958,1617,1731,29179,29157,2147483647,64727,65529,550,4170,7434,2271,51729,1,3,3,2
rest in paper,16:56:41.684,29210,7426,3309,1727,966,1406,791,1625,1520,905,966,2452,3506,29210,29179,29184,29214,29153,1467,1287,2197,1450,1749,2895,1190,1133,1019,949,1582,1678,29179,29228,2147483647,64722,65529,551,4174,7437,2278,51733,1,3,3,2
rest in paper,16:56:41.708,29210,7409,3344,1806,988,1410,799,1661,1639,909,958,2443,3493,29131,29140,29179,29162,29162,1480,1296,2232,1489,1709,2887,1208,1208,984,962,1599,1731,29271,29241,2147483647,64716,65531,545,4176,7437,2283,51735,1,3,3,2
rest in paper,16:56:41.809,29219,7444,3278,1766,949,1353,821,1652,1586,883,971,2460,3506,29157,29126,29214,29232,29184,1516,1283,2201,1485,1762,2891,1168,1195,993,975,1595,1691,29263,29254,2147483647,64720,65531,547,4176,7439,2286,51736,1,3,3,2
rest in paper,16:56:41.910,29148,7413,3229,1792,997,1388,843,1661,1586,914,966,2460,3484,29144,29126,29118,29170,29148,1485,1278,2188,1450,1744,2913,1217,1186,979,1006,1582,1713,29118,29175,2147483647,64721,65534,542,4174,7454,2292,51745,1,3,3,2
rest in paper,16:56:42.084,29258,7391,3216,1788,1019,1375,808,1634,1625,922,936,2438,3498,29236,29179,29201,29197,29210,1463,1291,2201,1480,1770,2917,1190,1217,1019,936,1568,1700,29263,29263,2147483647,64719,0,555,4175,7459,2293,51748,1,3,3,2
rest in paper,16:56:42.109,29214,7422,3265,1775,993,1379,799,1643,1617,896,922,2500,3524,29166,29135,29219,29206,29166,1458,1287,2232,1494,1762,2913,1208,1177,1010,962,1577,1687,29210,29192,2147483647,64712,65519,539,4180,7460,2292,51750,1,3,3,2
rest in paper,16:56:42.209,29166,7387,3229,1770,984,1397,808,1656,1577,896,993,2416,3515,29206,29197,29210,29153,29126,1454,1318,2184,1489,1749,2913,1204,1226,997,971,1599,1713,29210,29236,2147483647,64716,65531,546,4180,7459,2293,51750,1,3,3,2
rest in paper,16:56:42.306,29219,7395,3203,1744,971,1349,821,1630,1577,896,979,2443,3458,29157,29140,29118,29184,29148,1485,1313,2184,1445,1740,2935,1195,1199,1019,936,1625,1705,29153,29192,2147483647,64728,65534,541,4172,7460,2298,51749,1,3,3,2
rest in paper,16:56:42.408,29201,7400,3247,1735,962,1375,830,1608,1560,892,927,2456,3467,29170,29144,29188,29223,29157,1476,1300,2210,1489,1740,2904,1164,1208,997,984,1595,1700,29250,29201,2147483647,64724,65528,548,4171,7459,2297,51748,1,3,3,2
rest in paper,16:56:42.584,29228,7400,3300,1753,1001,1375,826,1639,1625,922,936,2438,3537,29148,29126,29184,29223,29122,1467,1261,2210,1454,1749,2913,1208,1190,988,949,1586,1753,29201,29223,2147483647,64714,65528,546,4174,7457,2288,51746,1,3,3,2
rest in paper,16:56:42.683,29140,7360,3221,1753,966,1322,782,1643,1595,927,984,2443,3484,29228,29179,29157,29192,29201,1458,1265,2170,1450,1735,2887,1195,1204,1001,949,1546,1700,29258,29201,2147483647,64721,65534,548,4176,7452,2285,51743,1,3,3,2
rest in paper,16:56:42.794,29232,7374,3265,1749,997,1388,834,1643,1599,922,927,2447,3511,29170,29144,29166,29201,29166,1458,1261,2232,1437,1753,2878,1190,1173,997,966,1604,1727,29271,29250,2147483647,64727,65533,542,4176,7452,2285,51743,1,3,3,2
rest in paper,16:56:42.884,29021,7347,3225,1762,993,1322,808,1612,1586,887,922,2447,3462,29162,29219,29263,29267,29241,1489,1265,2214,1463,1735,2895,1195,1199,944,971,1595,1705,29096,29100,2147483647,64720,1,552,4177,7444,2282,51739,1,3,3,2
rest in paper,16:56:42.984,29166,7391,3282,1749,1015,1357,804,1612,1582,887,936,2452,3462,29166,29122,29201,29214,29184,1489,1296,2245,1454,1779,2887,1155,1173,975,958,1586,1669,29184,29232,2147483647,64718,65527,547,4178,7443,2282,51738,1,3,3,2
rest in paper,16:56:43.009,29223,7435,3265,1766,979,1423,777,1669,1630,905,927,2416,3467,29241,29188,29148,29206,29236,1458,1313,2192,1467,1749,2904,1160,1208,975,962,1577,1709,29188,29197,2147483647,64723,65529,547,4177,7442,2283,51738,1,3,3,2
rest in paper,16:56:43.128,29223,7387,3212,1744,979,1393,812,1617,1568,887,936,2469,3484,29113,29034,29197,29232,29012,1476,1318,2232,1476,1753,2887,1160,1195,997,953,1621,1713,29276,29166,2147483647,64720,65528,545,4177,7439,2282,51736,1,3,3,2
rest in paper,16:56:43.284,29223,7395,3287,1819,997,1349,791,1599,1612,914,979,2386,3489,29166,29184,29210,29148,29214,1485,1300,2201,1467,1762,2904,1186,1208,1010,931,1612,1705,29241,29192,2147483647,64721,65528,552,4178,7436,2281,51735,1,3,3,2
rest in paper,16:56:43.306,29250,7391,3265,1797,988,1388,747,1652,1621,905,958,2465,3414,29192,29157,29201,29184,29157,1450,1287,2206,1472,1757,2878,1199,1221,1001,966,1595,1731,29192,29263,2147483647,64724,65528,549,4174,7432,2282,51731,1,3,3,2
rest in paper,16:56:43.494,29197,7369,3260,1749,1001,1366,795,1595,1617,922,931,2447,3493,29219,29153,29153,29175,29140,1476,1252,2232,1463,1740,2904,1186,1199,984,984,1573,1678,29210,29236,2147483647,64720,65529,547,4160,7433,2282,51727,1,3,3,2
rest in paper,16:56:43.517,29188,7378,3194,1731,1019,1401,817,1630,1586,887,953,2443,3467,29250,29232,29302,29236,29228,1485,1296,2210,1445,1718,2852,1199,1177,1010,940,1577,1678,29245,29175,2147483647,64723,65521,548,4141,7435,2276,51722,1,3,3,2
rest in paper,16:56:43.684,29184,7387,3247,1753,984,1362,786,1604,1582,905,949,2438,3462,29126,29039,29250,29263,29087,1437,1318,2214,1463,1713,2878,1186,1173,1001,927,1582,1731,29228,29184,2147483647,64720,65526,551,4130,7442,2265,51721,1,3,3,2
rest in paper,16:56:43.784,29206,7378,3208,1735,984,1344,791,1621,1555,878,971,2443,3462,29219,29223,29192,29148,29170,1445,1287,2170,1480,1735,2882,1186,1168,975,971,1582,1740,29214,29241,2147483647,64718,65527,543,4126,7445,2265,51721,1,3,3,2
rest in paper,16:56:43.884,29236,7409,3238,1753,979,1397,786,1674,1599,892,927,2425,3462,29254,29144,29192,29170,29166,1472,1318,2223,1410,1727,2878,1221,1177,984,971,1599,1696,29153,29210,2147483647,64723,65527,543,4118,7448,2265,51720,1,3,3,2
rest in paper,16:56:43.906,29175,7360,3229,1753,1010,1362,782,1634,1599,892,931,2447,3436,29228,29192,29214,29166,29175,1476,1305,2184,1441,1718,2874,1177,1217,1006,958,1590,1661,29144,29228,2147483647,64723,65524,547,4116,7448,2261,51719,1,3,3,2
rest in paper,16:56:44.084,29232,7374,3212,1753,993,1379,804,1643,1608,918,940,2452,3506,29206,29153,29162,29228,29197,1485,1283,2197,1472,1735,2887,1186,1195,979,936,1560,1722,29118,29223,2147483647,64712,65528,547,4116,7448,2261,51719,1,3,3,2
rest in paper,16:56:44.184,29219,7413,3229,1735,975,1375,848,1595,1582,900,940,2421,3480,29214,29157,29201,29188,29197,1463,1335,2228,1458,1731,2939,1212,1173,1001,962,1590,1696,29157,29201,2147483647,64720,65526,548,4115,7451,2261,51721,1,3,3,2
rest in paper,16:56:44.284,29241,7378,3234,1779,988,1388,747,1647,1608,874,953,2416,3511,29210,29175,29201,29162,29197,1463,1309,2184,1489,1744,2900,1182,1204,975,944,1555,1674,29162,29263,2147483647,64716,65524,547,4114,7457,2263,51723,1,3,3,2
rest in paper,16:56:44.307,29148,7374,3221,1788,993,1384,843,1612,1599,914,971,2447,3506,29245,29153,29206,29210,29223,1489,1296,2210,1489,1766,2909,1160,1177,1028,927,1595,1718,29245,29232,2147483647,64723,65526,548,4117,7460,2262,51726,1,3,3,2
rest in paper,16:56:44.408,29276,7391,3234,1784,993,1340,786,1634,1617,900,931,2469,3462,29267,29192,29219,29214,29197,1480,1309,2223,1463,1744,2887,1190,1208,1028,936,1617,1669,29175,29223,2147483647,64724,65527,549,4133,7458,2255,51728,1,3,3,2
rest in paper,16:56:44.584,29245,7330,3238,1770,958,1344,821,1630,1586,922,936,2452,3462,29122,29034,29267,29298,29065,1450,1322,2236,1489,1749,2904,1182,1212,984,936,1617,1713,29214,29184,2147483647,64722,65535,553,4144,7459,2255,51733,1,3,3,2
rest in paper,16:56:44.684,29210,7374,3194,1757,971,1375,804,1625,1604,892,905,2447,3462,29135,29184,29179,29135,29210,1450,1313,2223,1454,1762,2878,1173,1217,988,971,1590,1687,29258,29228,2147483647,64716,65532,543,4143,7468,2258,51737,1,3,3,2
rest in paper,16:56:44.708,29157,7369,3212,1713,988,1375,839,1643,1625,927,936,2390,3467,29250,29201,29179,29206,29175,1476,1287,2175,1467,1713,2891,1186,1190,997,962,1612,1696,29162,29144,2147483647,64719,65529,549,4143,7471,2259,51739,1,3,3,2
rest in paper,16:56:44.812,29170,7347,3247,1766,1001,1379,817,1661,1586,896,975,2412,3467,29214,29175,29188,29170,29192,1458,1291,2170,1463,1731,2852,1195,1195,966,949,1625,1713,29144,29201,2147483647,64720,0,550,4144,7473,2263,51741,1,3,3,2
rest in paper,16:56:44.984,29197,7374,3203,1735,966,1353,812,1608,1564,887,940,2399,3462,29271,29245,29175,29179,29206,1489,1313,2197,1494,1696,2830,1182,1199,979,927,1546,1735,29113,29232,2147483647,64716,65529,541,4145,7478,2268,51745,1,3,3,2
go to fist,16:56:45.084,29210,7360,3203,1718,984,1327,777,1625,1533,909,914,2434,3458,29241,29175,29126,29184,29170,1494,1278,2206,1467,1731,2860,1217,1173,979,958,1555,1691,29197,29166,2147483647,64720,65531,546,4140,7479,2272,51745,1,3,3,2
go to fist,16:56:45.108,29250,7378,3181,1753,984,1353,804,1643,1595,878,927,2425,3462,29258,29210,29140,29166,29223,1458,1274,2184,1467,1762,2869,1186,1160,1006,940,1595,1705,29157,29228,2147483647,64721,65533,547,4146,7479,2269,51746,1,3,3,2
go to fist,16:56:45.232,29179,7400,3208,1713,958,1366,826,1621,1568,922,936,2416,3449,29192,29157,29157,29144,29175,1450,1278,2214,1472,1766,2865,1168,1190,984,949,1568,1696,29061,29206,2147483647,64715,65529,551,4146,7479,2269,51746,1,3,3,2
go to fist,16:56:45.384,29175,7338,3172,1766,966,1349,821,1639,1551,874,931,2399,3449,29192,29166,29096,29126,29162,1485,1283,2223,1467,1775,2869,1208,1195,984,931,1590,1678,29148,29201,2147483647,64719,65527,542,4146,7479,2269,51746,1,3,3,2
go to fist,16:56:45.484,29157,7360,3190,1735,997,1366,839,1608,1568,927,944,2421,3489,29241,29236,29302,29280,29289,1454,1300,2201,1480,1744,2852,1186,1195,940,922,1590,1700,29131,29170,2147483647,64719,65530,550,4146,7477,2268,51745,1,3,3,2
go to fist,16:56:45.584,29232,7347,3190,1753,1032,1384,839,1625,1546,922,922,2434,3462,29201,29201,29100,29065,29188,1476,1313,2197,1463,1727,2860,1204,1195,993,940,1608,1722,29153,29232,2147483647,64718,65531,544,4146,7475,2268,51744,1,3,3,2
go to fist,16:56:45.694,29324,7338,3186,1766,1015,1344,804,1625,1590,927,971,2434,3462,29271,29197,29118,29184,29184,1450,1283,2201,1445,1705,2891,1226,1190,997,962,1612,1700,29197,29289,2147483647,64718,65534,547,4147,7472,2267,51742,1,3,3,2
go to fist,16:56:45.784,29118,7316,3208,1762,958,1340,821,1617,1604,909,922,2425,3520,29236,29254,29267,29245,29223,1467,1291,2210,1498,1727,2869,1177,1155,1028,918,1577,1687,29144,29153,2147483647,64720,65531,544,4141,7468,2269,51739,1,3,3,2
go to fist,16:56:45.884,29254,7378,3172,1744,958,1366,799,1634,1630,896,984,2425,3515,29228,29166,29162,29148,29192,1472,1305,2188,1467,1744,2825,1204,1190,988,931,1590,1709,29201,29232,2147483647,64723,65523,544,4139,7466,2269,51737,1,3,3,2
go to fist,16:56:45.984,29223,7369,3164,1766,1006,1349,817,1595,1599,878,931,2386,3471,29228,29197,29135,29153,29153,1458,1291,2228,1463,1713,2874,1182,1204,975,984,1604,1718,29166,29197,2147483647,64720,65527,552,4140,7465,2266,51736,1,3,3,2
go to fist,16:56:46.084,29267,7347,3181,1731,971,1353,786,1639,1612,909,953,2425,3493,29197,29219,29162,29148,29219,1463,1283,2210,1480,1753,2865,1190,1221,1006,914,1612,1705,29148,29280,2147483647,64723,65532,546,4140,7463,2265,51735,1,3,3,2
go to fist,16:56:46.194,29276,7338,3216,1762,1001,1379,791,1625,1573,918,936,2399,3493,29228,29210,29148,29184,29175,1458,1305,2223,1454,1709,2869,1186,1190,1032,905,1617,1678,29179,29280,2147483647,64723,65531,553,4140,7463,2265,51735,1,3,3,2
go to fist,16:56:46.217,29228,7316,3221,1740,971,1357,839,1568,1617,927,931,2368,3484,29228,29214,29241,29271,29214,1476,1287,2192,1476,1735,2874,1168,1204,988,975,1595,1705,29113,29166,2147483647,64719,65529,553,4141,7461,2265,51734,1,3,3,2
go to fist,16:56:46.384,29184,7312,3212,1744,993,1401,795,1669,1568,909,984,2395,3449,29236,29170,29153,29157,29148,1467,1305,2184,1507,1727,2895,1177,1221,993,966,1612,1722,29157,29210,2147483647,64715,65534,552,4141,7458,2264,51733,1,3,3,2
go to fist,16:56:46.406,29285,7382,3229,1744,979,1357,799,1617,1612,927,953,2386,3432,29228,29148,29162,29118,29188,1467,1270,2166,1516,1762,2856,1182,1182,988,940,1564,1700,29162,29293,2147483647,64720,65532,551,4142,7456,2266,51732,1,3,3,2
go to fist,16:56:46.584,29228,7387,3260,1779,979,1340,799,1625,1582,931,958,2403,3480,29236,29157,29144,29135,29140,1472,1300,2223,1445,1744,2878,1182,1221,988,940,1617,1691,29271,29188,2147483647,64715,65530,545,4147,7446,2274,51729,1,3,3,2
go to fist,16:56:46.684,29302,7457,3273,1744,966,1309,795,1617,1582,909,1001,2430,3462,29210,29210,29210,29197,29210,1441,1305,2210,1472,1735,2904,1186,1234,1023,958,1590,1700,29219,29276,2147483647,64720,65524,552,4144,7444,2272,51727,1,3,3,2
go to fist,16:56:46.709,29293,7457,3339,1770,958,1349,826,1604,1564,918,971,2399,3471,29201,29148,29166,29170,29153,1467,1296,2232,1472,1727,2843,1190,1204,1006,984,1568,1669,29175,29245,2147483647,64714,65530,547,4145,7448,2274,51730,1,3,3,2
go to fist,16:56:46.811,29245,7510,3357,1784,971,1375,808,1595,1573,887,936,2421,3493,29245,29192,29206,29263,29206,1472,1335,2245,1507,1705,2869,1208,1230,1023,940,1625,1705,29214,29241,2147483647,64719,65526,547,4147,7457,2284,51737,1,3,3,2
go to fist,16:56:46.906,29293,7514,3370,1762,984,1371,804,1608,1555,918,971,2491,3493,29201,29258,29126,29153,29254,1467,1313,2241,1450,1735,2891,1190,1217,1028,927,1621,1731,29263,29250,2147483647,64723,65522,547,4140,7467,2291,51741,1,3,3,2
go to fist,16:56:47.007,29250,7448,3357,1766,1001,1371,795,1630,1546,914,962,2469,3493,29219,29228,29148,29184,29201,1472,1313,2219,1485,1749,2900,1234,1186,966,953,1586,1696,29184,29228,2147483647,64721,65528,544,4141,7476,2299,51748,1,3,3,2
go to fist,16:56:47.184,29250,7475,3344,1753,1010,1419,812,1586,1590,927,962,2474,3537,29250,29162,29140,29197,29184,1472,1300,2254,1458,1718,2904,1168,1186,993,958,1590,1669,29232,29250,2147483647,64717,65526,545,4139,7487,2302,51754,1,3,3,2
go to fist,16:56:47.284,29175,7501,3287,1749,931,1353,791,1599,1595,887,922,2456,3502,29210,29179,29061,29104,29250,1472,1313,2250,1476,1691,2878,1230,1204,1023,962,1582,1700,29228,29236,2147483647,64723,65529,544,4137,7499,2306,51761,1,3,3,2
go to fist,16:56:47.308,29271,7479,3335,1753,1006,1375,795,1617,1582,918,979,2456,3511,29210,29192,29175,29166,29206,1458,1305,2241,1463,1727,2935,1208,1221,1015,988,1634,1700,29170,29223,2147483647,64725,65530,542,4136,7508,2310,51766,1,3,3,2
go to fist,16:56:47.429,29210,7444,3300,1749,988,1423,795,1621,1599,914,944,2443,3476,29228,29223,29162,29201,29241,1472,1291,2197,1432,1727,2887,1182,1190,1001,971,1595,1713,29074,29214,2147483647,64715,65528,547,4138,7514,2310,51769,1,3,3,2
go to fist,16:56:47.510,29280,7453,3322,1727,1006,1353,773,1617,1612,896,962,2487,3502,29228,29280,29214,29223,29245,1489,1309,2184,1489,1709,2909,1221,1212,1023,931,1630,1669,29166,29298,2147483647,64716,65530,546,4140,7521,2311,51774,1,3,3,2
go to fist,16:56:47.684,29245,7475,3273,1784,984,1371,795,1599,1586,966,958,2478,3498,29210,29188,29170,29214,29241,1476,1322,2285,1450,1757,2887,1208,1208,1010,962,1612,1669,29214,29298,2147483647,64717,65524,540,4140,7525,2314,51777,1,3,3,2
go to fist,16:56:47.707,29236,7387,3344,1757,1023,1375,786,1661,1582,887,949,2513,3533,29241,29267,29170,29236,29223,1441,1305,2192,1476,1731,2878,1190,1173,979,922,1582,1731,29236,29214,2147483647,64724,65526,541,4140,7528,2315,51779,1,3,3,2
go to fist,16:56:47.885,29126,7505,3392,1770,1001,1344,773,1612,1590,900,922,2518,3524,29258,29228,29140,29201,29223,1437,1296,2236,1485,1749,2874,1146,1182,1019,940,1612,1683,29206,29223,2147483647,64722,65528,543,4141,7525,2316,51777,1,3,3,2
go to fist,16:56:47.984,29228,7523,3353,1797,979,1371,821,1568,1586,887,958,2504,3471,29223,29223,29250,29201,29232,1480,1340,2236,1476,1740,2900,1155,1199,984,931,1560,1669,29192,29228,2147483647,64709,65524,537,4141,7521,2313,51775,1,3,3,2
go to fist,16:56:48.084,29201,7479,3379,1744,1006,1349,817,1599,1564,936,962,2460,3515,29197,29241,29162,29162,29214,1489,1300,2228,1463,1731,2882,1195,1212,984,949,1595,1691,29157,29223,2147483647,64715,65521,539,4141,7521,2313,51775,1,3,3,2
go to fist,16:56:48.184,29206,7545,3361,1775,984,1393,777,1590,1560,900,949,2478,3550,29245,29263,29153,29201,29201,1489,1322,2245,1450,1718,2891,1173,1217,971,944,1612,1674,29210,29263,2147483647,64721,65526,540,4141,7522,2313,51775,1,3,3,2
go to fist,16:56:48.209,29192,7545,3410,1749,1019,1384,791,1608,1577,887,936,2513,3546,29192,29223,29197,29162,29236,1485,1300,2250,1441,1731,2865,1160,1182,1001,966,1608,1687,29170,29197,2147483647,64718,65527,543,4143,7523,2310,51776,1,3,3,2
go to fist,16:56:48.384,29236,7532,3348,1744,1015,1366,808,1643,1529,892,922,2482,3546,29324,29258,29175,29219,29241,1494,1322,2236,1476,1705,2860,1199,1212,1001,962,1595,1683,29175,29232,2147483647,64710,65525,536,4143,7522,2310,51776,1,3,3,2
go to fist,16:56:48.504,29258,7527,3370,1753,1010,1401,804,1599,1546,914,931,2531,3541,29223,29245,29197,29245,29192,1476,1278,2254,1485,1722,2869,1177,1155,1001,971,1595,1718,29307,29192,2147483647,64718,65527,541,4143,7522,2310,51776,1,3,3,2
go to fist,16:56:48.625,29219,7541,3383,1788,979,1388,799,1586,1520,927,966,2535,3546,29219,29153,29223,29184,29131,1485,1287,2236,1489,1709,2843,1168,1177,1010,944,1573,1700,29153,29236,2147483647,64717,65529,539,4143,7521,2310,51775,1,3,3,2
go to fist,16:56:48.704,29245,7554,3401,1757,988,1423,799,1612,1573,905,953,2601,3555,29135,29091,29254,29214,29113,1476,1305,2258,1463,1713,2847,1195,1182,1015,971,1586,1691,29197,29258,2147483647,64714,65524,540,4144,7518,2309,51773,1,3,3,2
go to fist,16:56:48.784,29232,7532,3410,1757,1019,1371,812,1555,1564,878,931,2592,3546,29236,29214,29184,29236,29113,1441,1296,2245,1437,1731,2856,1173,1190,1001,944,1568,1705,29197,29188,2147483647,64718,65526,543,4141,7518,2311,51773,1,3,3,2
go to fist,16:56:48.900,29223,7527,3366,1757,975,1397,786,1595,1564,887,997,2627,3585,29254,29223,29192,29210,29188,1476,1278,2206,1476,1718,2843,1234,1190,958,966,1590,1700,29228,29206,2147483647,64721,65525,546,4137,7518,2313,51772,1,3,3,2
go to fist,16:56:48.914,29197,7514,3392,1788,993,1401,830,1573,1533,861,944,2570,3559,29298,29162,29144,29245,29170,1480,1296,2250,1498,1740,2869,1160,1182,997,927,1595,1652,29135,29236,2147483647,64724,65527,540,4136,7518,2314,51772,1,3,3,2
go to fist,16:56:49.084,29210,7479,3366,1709,1015,1397,821,1573,1542,940,975,2579,3541,29280,29241,29166,29144,29241,1472,1296,2236,1476,1749,2803,1177,1173,1010,944,1568,1705,29100,29219,2147483647,64718,65528,549,4135,7514,2314,51769,1,3,3,2
go to fist,16:56:49.109,29219,7497,3388,1749,984,1423,786,1586,1507,905,949,2557,3621,29250,29254,29219,29179,29236,1485,1305,2197,1467,1713,2838,1168,1195,993,975,1590,1678,29131,29197,2147483647,64712,65524,539,4135,7508,2314,51766,1,3,3,2
go to fist,16:56:49.284,29298,7479,3361,1753,1032,1388,848,1595,1555,878,971,2522,3603,29250,29276,29157,29223,29250,1454,1296,2258,1489,1713,2869,1182,1212,988,984,1590,1713,29157,29258,2147483647,64717,65523,543,4133,7505,2316,51764,1,3,3,2
go to fist,16:56:49.386,29175,7541,3410,1744,997,1393,795,1551,1511,865,966,2583,3533,29315,29271,29210,29219,29289,1467,1296,2206,1494,1722,2812,1195,1212,975,975,1595,1691,29228,29192,2147483647,64717,65522,546,4132,7499,2316,51760,1,3,3,2
go to fist,16:56:49.595,29135,7510,3388,1762,962,1423,791,1564,1524,900,940,2526,3550,29271,29232,29166,29170,29258,1454,1287,2250,1454,1718,2830,1221,1190,1019,962,1590,1718,29148,29144,2147483647,64724,65520,534,4119,7484,2327,51751,1,3,3,2
go to fist,16:56:49.884,29179,7523,3396,1731,993,1401,821,1542,1489,909,949,2562,3550,29245,29206,29228,29223,29236,1450,1305,2228,1441,1735,2808,1204,1146,993,958,1630,1700,29131,29254,2147483647,64713,65522,547,4118,7478,2327,51747,1,3,3,2
go to fist,16:56:49.984,29219,7541,3388,1757,984,1437,826,1542,1489,900,940,2522,3559,29201,29214,29091,29144,29250,1485,1309,2184,1480,1669,2803,1182,1182,1006,931,1551,1696,29162,29188,2147483647,64712,65515,539,4118,7476,2329,51746,1,3,3,2
rest in fist,16:56:50.084,29210,7562,3432,1749,1010,1375,777,1520,1485,896,944,2544,3528,29280,29206,29201,29210,29254,1485,1265,2175,1489,1691,2830,1177,1177,975,975,1586,1683,29078,29245,2147483647,64720,65520,539,4113,7476,2338,51746,1,3,3,2
rest in fist,16:56:50.111,29206,7519,3370,1749,993,1375,786,1551,1480,900,927,2531,3555,29267,29254,29210,29214,29236,1516,1270,2166,1458,1705,2803,1168,1182,1006,979,1551,1722,29113,29254,2147483647,64715,65519,538,4110,7477,2344,51747,1,3,3,2
rest in fist,16:56:50.209,29188,7545,3418,1731,953,1423,812,1564,1467,905,958,2557,3546,29241,29232,29241,29184,29271,1498,1309,2206,1458,1731,2834,1173,1173,988,971,1573,1731,29091,29223,2147483647,64718,65518,536,4111,7477,2345,51747,1,3,3,2
rest in fist,16:56:50.316,29162,7519,3396,1749,997,1401,777,1498,1507,905,958,2526,3568,29258,29258,29144,29140,29236,1480,1283,2197,1458,1718,2847,1168,1182,971,997,1582,1709,29157,29162,2147483647,64715,65515,542,4111,7481,2347,51750,1,3,3,2
rest in fist,16:56:50.485,29087,7532,3405,1766,1001,1406,808,1516,1494,900,962,2526,3599,29285,29197,29201,29250,29236,1467,1278,2223,1472,1687,2808,1173,1186,1019,975,1608,1709,29210,29140,2147483647,64715,65517,543,4111,7488,2353,51755,1,3,3,2
rest in fist,16:56:50.507,29223,7505,3410,1766,1010,1371,777,1577,1476,922,940,2531,3550,29285,29245,29135,29166,29201,1454,1327,2192,1507,1705,2812,1177,1151,1006,988,1634,1687,29061,29170,2147483647,64724,65518,543,4112,7492,2357,51758,1,3,3,2
rest in fist,16:56:50.684,29245,7541,3462,1749,1019,1406,786,1577,1472,940,966,2540,3524,29219,29263,29179,29166,29250,1476,1287,2179,1450,1757,2834,1168,1177,1015,966,1586,1709,29052,29280,2147483647,64712,65521,536,4112,7499,2359,51763,1,3,3,2
rest in fist,16:56:50.784,29166,7554,3427,1792,1006,1406,812,1551,1489,900,922,2535,3572,29258,29192,29131,29135,29210,1450,1300,2245,1441,1718,2808,1204,1212,1006,988,1568,1757,29052,29223,2147483647,64715,65515,533,4112,7505,2364,51766,1,3,3,2
rest in fist,16:56:50.807,29184,7567,3471,1740,1019,1415,804,1538,1516,905,971,2487,3616,29184,29188,29201,29157,29210,1463,1300,2201,1507,1700,2781,1164,1204,1037,958,1568,1735,29126,29236,2147483647,64718,65516,536,4110,7505,2365,51765,1,3,3,2
rest in fist,16:56:50.920,29126,7602,3449,1801,962,1401,799,1524,1445,887,944,2487,3559,29254,29214,29175,29162,29210,1485,1296,2197,1502,1718,2772,1204,1151,975,988,1599,1735,29144,29162,2147483647,64720,65520,540,4107,7501,2366,51763,1,3,3,2
rest in fist,16:56:51.010,29223,7615,3440,1744,988,1423,769,1524,1480,936,936,2522,3555,29232,29144,29175,29236,29153,1480,1309,2162,1485,1727,2821,1173,1195,1010,993,1621,1683,29008,29170,2147483647,64709,65515,540,4108,7493,2362,51758,1,3,3,2
rest in fist,16:56:51.184,29250,7598,3520,1770,1037,1397,804,1507,1467,905,984,2544,3585,29245,29175,29228,29201,29192,1476,1287,2184,1498,1713,2834,1204,1190,984,966,1604,1674,29078,29214,2147483647,64711,65511,541,4107,7488,2357,51754,1,3,3,2
rest in fist,16:56:51.285,29184,7576,3484,1775,1006,1410,799,1538,1472,927,944,2540,3533,29223,29276,29245,29219,29276,1432,1309,2197,1485,1727,2830,1182,1186,984,958,1595,1731,29061,29188,2147483647,64715,65512,543,4106,7482,2356,51750,1,3,3,2
rest in fist,16:56:51.384,29113,7602,3462,1757,997,1432,812,1485,1489,883,962,2513,3546,29254,29188,29091,29122,29206,1489,1335,2188,1494,1696,2808,1173,1182,1001,905,1595,1744,29219,29140,2147483647,64722,65517,542,4101,7471,2355,51742,1,3,3,2
rest in fist,16:56:51.484,29118,7606,3515,1779,984,1450,795,1533,1463,878,922,2513,3550,29293,29254,29083,29109,29258,1511,1309,2219,1454,1731,2869,1208,1116,1001,949,1573,1735,29245,29153,2147483647,64710,65522,550,4093,7458,2346,51732,1,3,3,2
rest in fist,16:56:51.585,29210,7686,3546,1740,958,1388,777,1502,1463,949,962,2522,3607,29184,29175,29236,29236,29157,1489,1340,2192,1485,1749,2834,1177,1155,988,962,1625,1683,29175,29210,2147483647,64719,65511,544,4084,7458,2353,51729,1,3,3,2
rest in fist,16:56:51.615,29131,7712,3585,1788,1010,1441,804,1516,1419,918,927,2522,3603,29065,29267,29192,29232,29188,1458,1327,2175,1480,1749,2895,1168,1164,1006,958,1621,1740,29131,29144,2147483647,64719,65506,543,4063,7455,2382,51728,1,3,3,2
rest in fist,16:56:51.824,29166,7708,3594,1775,984,1450,821,1546,1467,927,940,2509,3520,29232,29131,29122,29140,29104,1498,1357,2223,1463,1713,2843,1195,1190,1010,953,1612,1691,29113,29175,2147483647,64712,65501,539,4059,7456,2426,51734,1,3,3,2
rest in fist,16:56:52.305,29118,7681,3493,1788,988,1423,777,1502,1445,909,949,2531,3533,29210,29219,29074,29052,29250,1480,1318,2184,1467,1709,2843,1208,1186,993,975,1599,1678,29192,29175,2147483647,64717,65504,540,4061,7449,2430,51732,1,3,3,2
rest in fist,16:56:52.332,29153,7628,3476,1775,971,1406,812,1555,1441,870,936,2460,3506,29241,29206,29157,29100,29201,1445,1296,2228,1502,1757,2852,1164,1208,1006,953,1573,1678,29232,29131,2147483647,64715,65504,544,4070,7432,2423,51724,1,3,3,2
rest in fist,16:56:52.484,29179,7593,3454,1828,1028,1432,812,1467,1463,914,936,2518,3528,29250,29232,29228,29210,29201,1472,1340,2175,1502,1722,2856,1234,1195,993,944,1582,1696,28968,29210,2147483647,64724,65505,552,4070,7430,2422,51723,1,3,3,2
rest in fist,16:56:52.510,29214,7598,3462,1788,993,1445,817,1476,1472,918,958,2452,3581,29232,29276,29192,29214,29214,1467,1313,2162,1450,1700,2790,1186,1173,958,984,1608,1696,29017,29219,2147483647,64718,65503,546,4073,7434,2421,51726,1,3,3,2
rest in fist,16:56:52.685,29126,7562,3515,1770,1023,1428,817,1502,1428,887,918,2452,3498,29091,29184,29184,29228,29236,1463,1305,2170,1454,1722,2860,1164,1173,975,944,1608,1731,29153,29104,2147483647,64714,65505,536,4076,7434,2419,51726,1,3,3,2
rest in fist,16:56:52.894,29201,7598,3484,1770,1001,1410,804,1511,1507,848,958,2434,3511,29245,29267,29289,29276,29298,1489,1283,2157,1467,1740,2843,1186,1173,993,962,1573,1683,29052,29214,2147483647,64720,65501,543,4076,7438,2423,51729,1,3,3,2
rest in fist,16:56:52.984,29166,7580,3515,1792,984,1437,791,1507,1450,896,971,2469,3493,29043,29298,29258,29293,29280,1485,1313,2184,1502,1727,2834,1173,1212,1006,958,1599,1709,29210,29148,2147483647,64716,65499,546,4080,7442,2431,51734,1,3,3,2
rest in fist,16:56:53.009,29210,7637,3489,1753,979,1393,795,1485,1428,914,949,2447,3515,29210,29236,29201,29192,29170,1520,1327,2135,1494,1683,2825,1190,1142,975,966,1612,1669,29175,29206,2147483647,64718,65509,551,4087,7440,2427,51734,1,3,3,2
rest in fist,16:56:53.129,29179,7611,3440,1740,993,1415,804,1507,1489,892,953,2421,3493,29263,29241,29140,29166,29210,1494,1331,2184,1480,1691,2794,1195,1168,1010,962,1590,1718,29263,29241,2147483647,64720,65508,540,4089,7441,2432,51736,1,3,3,2
rest in fist,16:56:53.218,29184,7615,3498,1779,997,1393,764,1546,1445,909,927,2421,3528,29074,29201,29219,29206,29184,1502,1322,2153,1485,1678,2834,1177,1142,1001,936,1586,1713,29157,29228,2147483647,64720,65504,539,4088,7447,2434,51739,1,3,3,2
rest in fist,16:56:53.307,29188,7571,3467,1810,984,1450,817,1480,1441,892,931,2465,3454,29250,29293,29241,29241,29271,1485,1296,2153,1485,1700,2838,1182,1164,1028,953,1612,1691,29096,29140,2147483647,64718,65505,539,4088,7447,2434,51739,1,3,3,2
rest in fist,16:56:53.704,29144,7624,3440,1727,949,1432,791,1507,1472,892,958,2460,3502,29223,29214,29250,29241,29258,1485,1318,2131,1463,1718,2838,1164,1155,975,975,1573,1696,29175,29179,2147483647,64713,65504,539,4088,7446,2433,51739,1,3,3,2
rest in fist,16:56:53.825,29148,7589,3498,1788,997,1419,773,1546,1458,900,962,2447,3484,29250,29184,29153,29113,29219,1450,1278,2192,1520,1766,2790,1199,1168,997,988,1599,1713,29250,29184,2147483647,64718,65506,550,4103,7394,2406,51711,1,3,3,2
rest in fist,16:56:53.984,29236,7659,3498,1788,993,1428,742,1516,1458,922,962,2474,3498,29228,29280,29144,29144,29263,1437,1335,2148,1494,1727,2825,1204,1177,997,993,1621,1709,29096,29241,2147483647,64722,65509,547,4109,7382,2399,51705,1,3,3,2
rest in fist,16:56:54.084,29034,7549,3440,1784,1010,1397,795,1458,1432,887,936,2465,3502,29197,29241,29254,29245,29188,1516,1305,2184,1516,1709,2799,1195,1177,1041,971,1612,1700,29188,29061,2147483647,64726,65503,550,4108,7382,2395,51704,1,3,3,2
rest in fist,16:56:54.205,29047,7615,3471,1762,988,1401,799,1524,1467,861,931,2465,3493,29236,29206,29271,29276,29197,1494,1305,2135,1489,1709,2834,1177,1182,997,971,1617,1718,29091,29192,2147483647,64722,65503,549,4108,7381,2395,51703,1,3,3,2
rest in fist,16:56:54.414,29250,7611,3467,1770,971,1401,799,1476,1397,909,909,2447,3462,29241,29188,29100,29096,29192,1489,1318,2175,1502,1700,2799,1142,1164,1001,997,1582,1678,29228,29201,2147483647,64721,65507,551,4107,7382,2395,51703,1,3,3,2
rest in fist,16:56:54.494,29104,7628,3515,1753,997,1441,791,1472,1445,900,944,2474,3476,29148,29236,29192,29210,29232,1445,1291,2175,1507,1722,2869,1138,1177,979,953,1595,1718,29135,29131,2147483647,64734,65509,552,4103,7381,2397,51702,1,3,3,2
rest in fist,16:56:54.536,29109,7602,3462,1753,1010,1397,786,1494,1467,905,931,2447,3476,29267,29267,29140,29122,29214,1507,1322,2162,1476,1691,2852,1226,1208,975,958,1595,1696,29140,29104,2147483647,64720,65510,553,4101,7375,2398,51699,1,3,3,2
rest in fist,16:56:54.784,29184,7589,3480,1775,971,1401,817,1511,1450,900,931,2443,3493,29214,29280,29232,29206,29245,1507,1318,2131,1458,1687,2865,1195,1186,993,966,1617,1696,29157,29219,2147483647,64724,65507,554,4100,7365,2401,51693,1,3,3,2
rest in fist,16:56:54.885,29109,7593,3484,1775,993,1393,808,1507,1437,927,966,2456,3515,29232,29219,29232,29184,29245,1494,1305,2162,1507,1700,2830,1160,1204,984,962,1621,1674,29118,29153,2147483647,64722,65504,551,4099,7359,2403,51690,1,3,3,2
rest in fist,16:56:54.993,29118,7650,3432,1749,1023,1415,812,1494,1441,896,914,2452,3506,29219,29236,29162,29214,29228,1472,1283,2126,1507,1713,2821,1164,1182,988,949,1577,1705,29175,29056,2147483647,64727,65505,550,4098,7357,2404,51689,1,3,3,2
go to paper,16:56:55.084,29179,7598,3462,1770,971,1388,777,1489,1437,878,922,2421,3502,29206,29056,29223,29236,29140,1467,1274,2140,1480,1727,2830,1177,1190,979,958,1590,1683,29113,29162,2147483647,64722,65502,551,4098,7351,2405,51686,1,3,3,2
go to paper,16:56:55.194,29126,7584,3480,1744,962,1415,812,1507,1423,870,936,2474,3515,29236,29201,29184,29210,29241,1520,1296,2109,1480,1705,2794,1186,1208,993,962,1617,1696,29113,29135,2147483647,64725,65505,554,4097,7347,2407,51684,1,3,3,2
go to paper,16:56:55.504,29175,7589,3506,1797,993,1454,782,1480,1450,874,944,2425,3489,29254,29219,29170,29223,29210,1489,1318,2135,1472,1757,2830,1173,1168,1001,1015,1595,1705,29052,29228,2147483647,64730,65510,554,4098,7353,2403,51687,1,3,3,2
go to paper,16:56:55.713,29052,7839,3708,1735,1050,1410,791,1489,1410,909,936,2460,3528,29170,29184,29232,29232,29166,1502,1305,2298,1494,1735,2882,1182,1182,993,914,1612,1700,29206,29113,2147483647,64719,65518,552,4133,7415,2304,51713,1,3,3,2
go to paper,16:56:55.807,29131,7795,3704,1766,1010,1437,769,1555,1432,918,975,2452,3506,29188,29214,29179,29219,29175,1494,1287,2276,1511,1753,2917,1168,1212,984,958,1560,1713,29179,29025,2147483647,64719,65512,542,4149,7432,2305,51728,1,3,3,2
go to paper,16:56:55.984,29012,7896,3713,1792,1032,1437,808,1551,1437,927,979,2456,3577,29188,29170,29210,29201,29188,1472,1357,2315,1445,1740,2939,1173,1177,1001,984,1599,1709,29118,29069,2147483647,64718,65521,546,4154,7451,2312,51740,1,3,3,2
go to paper,16:56:56.008,29148,7826,3629,1784,1028,1419,769,1577,1480,892,966,2465,3572,29245,29170,29197,29214,29166,1511,1313,2267,1454,1740,2957,1151,1212,971,962,1555,1713,29118,29166,2147483647,64731,65524,560,4160,7458,2324,51748,1,3,3,2
go to paper,16:56:56.184,29087,7817,3651,1731,988,1463,804,1612,1498,865,940,2482,3541,29219,29267,29223,29223,29223,1507,1322,2219,1507,1770,2992,1168,1212,997,966,1586,1718,29153,29118,2147483647,64718,65525,547,4168,7462,2329,51753,1,3,3,2
go to paper,16:56:56.284,28986,7738,3643,1784,997,1410,821,1652,1463,922,949,2452,3528,29206,29188,29210,29267,29157,1485,1287,2236,1472,1749,2935,1155,1221,1006,958,1599,1713,29166,29126,2147483647,64723,65525,543,4172,7461,2344,51757,1,3,3,2
go to paper,16:56:56.307,29034,7787,3669,1722,993,1410,786,1696,1489,892,944,2465,3585,29197,29245,29201,29241,29245,1494,1327,2245,1476,1718,2997,1204,1230,966,958,1604,1705,29131,28986,2147483647,64714,65524,546,4173,7462,2349,51758,1,3,3,2
go to paper,16:56:56.514,29003,7729,3607,1766,997,1428,812,1643,1533,887,914,2478,3541,29157,29232,29197,29188,29271,1502,1305,2285,1507,1722,3010,1182,1212,979,922,1595,1757,29087,29148,2147483647,64723,65521,553,4177,7455,2347,51755,1,3,3,2
go to paper,16:56:56.594,29267,7686,3594,1749,1001,1432,808,1647,1529,940,949,2522,3599,29162,29144,29131,29197,29122,1502,1313,2236,1458,1718,2953,1186,1177,1001,984,1568,1700,29223,29236,2147483647,64718,65521,553,4177,7449,2348,51752,1,3,3,2
