Scenario,Time,P0,P1,P2,P3,P4,P5,P6,P7,P8,P9,P10,P11,P12,P13,P14,P15,P16,P17,P18,P19,P20,P21,P22,P23,P24,P25,P26,P27,P28,P29,P30,P31,ECG,AX,AY,AZ,QW,QX,QY,QZ,CS,CA,CG,CM
Wait,26:00.0,29395,29425,2746,5330,1977,3528,6380,1146,3014,2039,1393,2553,1019,29518,29504,29474,29487,5800,2118,1322,1278,2100,10063,1546,19946,16026,3159,1309,1393,3014,17745,29390,1392468992,24,65,972,13692,397,64995,56563,0,1,3,0
Wait,26:00.1,29324,29315,2742,5365,1964,3537,6389,1186,3036,2043,1406,2610,1059,29487,29460,29496,29456,5857,2122,1322,1270,2109,10032,1599,19872,16092,3150,1313,1384,3023,17758,29351,1392535808,23,68,975,13692,397,64995,56563,0,1,3,0
Wait,26:00.2,29359,29434,2768,5339,1964,3546,6345,1177,3014,2012,1344,2601,1001,29504,29482,29526,29478,5835,2148,1327,1291,2078,10019,1555,19450,15473,3102,1318,1371,3027,17771,29390,1392603648,23,69,974,13692,397,64995,56563,0,1,3,0
Wait,26:00.3,29355,29386,2742,5317,1981,3563,6376,1186,3045,2069,1349,2566,1010,29522,29474,29478,29430,5835,2126,1291,1287,2087,10032,1560,20491,16835,3177,1274,1371,3005,17727,29386,1392671488,24,66,972,13692,397,64995,56563,0,1,3,0
Wait,26:00.4,29377,29421,2777,5291,1942,3528,6345,1168,3067,2061,1384,2570,975,29570,29452,29509,29509,5849,2122,1291,1256,2109,10010,1564,20280,16308,3150,1318,1393,2997,17789,29386,1392737664,25,68,975,13692,397,64995,56563,0,1,3,0
Wait,26:00.5,29438,29421,2750,5312,1951,3559,6350,1160,2988,2025,1401,2579,1019,29425,29337,29250,29289,5893,2140,1313,1270,2126,10037,1577,20750,16765,3098,1274,1362,3054,17793,29390,1392806400,23,70,975,13692,397,64995,56563,0,1,3,0
Wait,26:00.6,29342,29416,2750,5330,1946,3555,6341,1155,3041,2091,1384,2597,1006,29491,29482,29469,29504,5822,2109,1296,1291,2074,10076,1542,20733,16536,3177,1322,1357,3019,17753,29333,1392874624,24,66,972,13692,397,64995,56563,0,1,3,0
Wait,26:00.7,29346,29438,2742,5330,1942,3559,6341,1204,3036,2069,1410,2623,997,29456,29469,29460,29509,5827,2100,1309,1278,2109,10059,1573,20663,16918,3137,1256,1384,2988,17819,29364,1392944000,25,67,975,13692,397,64995,56563,0,1,3,0
Wait,26:00.8,29329,29342,2772,5317,1968,3559,6380,1173,3071,2030,1401,2575,1023,29482,29478,29456,29447,5857,2104,1349,1270,2109,10041,1586,20860,16998,3181,1291,1357,3049,17775,29333,1393010688,25,69,972,13692,397,64995,56563,0,1,3,0
Wait,26:00.9,29403,29333,2742,5321,1986,3511,6358,1151,3010,2047,1393,2610,1019,29513,29346,29412,29452,5831,2113,1291,1274,2091,10067,1551,21159,17024,3155,1327,1410,3045,17771,29526,1393080960,23,68,973,13692,397,64995,56563,0,1,3,0
Wait,26:01.0,29342,29381,2733,5295,1946,3555,6354,1199,3041,2065,1362,2562,1015,29438,29465,29452,29416,5831,2118,1274,1283,2091,10050,1595,20882,17336,3186,1287,1371,3027,17758,29333,1393147136,24,65,973,13692,397,64995,56563,0,1,3,0
Wait,26:01.1,29443,29342,2764,5321,1973,3559,6367,1173,3049,2017,1375,2614,1023,29522,29504,29504,29518,5822,2100,1305,1274,2104,10015,1555,20808,16940,3190,1265,1397,2992,17753,29381,1393214080,25,69,972,13692,397,64995,56563,0,1,3,0
Wait,26:01.2,29337,29329,2777,5286,1973,3528,6354,1160,3036,2083,1388,2588,1019,29478,29447,29496,29456,5818,2113,1318,1296,2078,10050,1555,20830,17296,3172,1309,1388,3067,17727,29324,1393281024,26,68,972,13692,397,64995,56563,0,1,3,0
Wait,26:01.3,29364,29337,2742,5326,1924,3506,6341,1173,3071,2043,1371,2553,1015,29474,29430,29509,29438,5818,2096,1357,1291,2122,10019,1590,20909,17081,3177,1283,1375,3014,17731,29386,1393348480,23,67,972,13692,397,64995,56563,0,1,3,0
Wait,26:01.4,29342,29403,2772,5348,1946,3555,6363,1177,3062,2052,1388,2588,1010,29434,29482,29438,29438,5844,2118,1296,1248,2109,10054,1529,20816,16844,3164,1305,1371,3032,17793,29311,1393417472,23,67,977,13692,397,64995,56563,0,1,3,0
Wait,26:01.5,29346,29443,2768,5339,1977,3555,6363,1182,3062,2056,1397,2592,997,29491,29500,29474,29465,5875,2104,1309,1296,2109,10081,1568,20447,16541,3186,1291,1362,3062,17828,29377,1393486336,23,67,974,13692,397,64995,56563,0,1,3,0
Wait,26:01.6,29364,29298,2781,5352,1977,3533,6372,1168,3045,2043,1393,2548,1019,29465,29438,29416,29438,5791,2118,1318,1283,2109,10023,1564,20610,16312,3146,1283,1384,3019,17767,29408,1393552896,24,69,977,13692,397,64995,56563,0,1,3,0
Wait,26:01.7,29395,29390,2755,5321,1968,3585,6385,1173,3058,2025,1349,2583,1041,29474,29487,29434,29456,5831,2083,1313,1256,2087,10006,1582,20460,16523,3212,1283,1375,3014,17731,29373,1393619584,25,65,972,13692,397,64995,56563,0,1,3,0
Wait,26:01.8,29408,29337,2781,5308,1981,3528,6336,1168,3049,2087,1327,2562,966,29434,29465,29430,29496,5840,2100,1287,1291,2061,10028,1555,20904,16497,3150,1296,1353,3005,17749,29399,1393686656,25,67,972,13692,397,64995,56563,0,1,3,0
Wait,26:01.9,29280,29368,2821,5361,1977,3541,6385,1173,3023,2052,1344,2592,1015,29430,29443,29403,29421,5827,2083,1283,1265,2104,10050,1582,20869,16844,3146,1309,1340,3036,17784,29355,1393753856,27,68,973,13692,397,64995,56563,0,1,3,0
Wait,26:02.0,29346,29390,2746,5304,1999,3541,6389,1173,3010,2039,1419,2579,988,29412,29496,29474,29416,5818,2144,1313,1291,2104,10085,1595,20377,16923,3168,1291,1379,3023,17745,29364,1393821056,23,64,975,13692,397,64995,56563,0,1,3,0
Wait,26:02.1,29368,29342,2724,5339,1990,3524,6367,1186,3010,1977,1410,2592,1032,29425,29469,29430,29438,5805,2131,1313,1287,2104,10015,1577,20452,17129,3137,1335,1397,3032,17740,29346,1393888256,23,66,973,13692,397,64995,56563,0,1,3,0
Wait,26:02.2,29333,29373,2759,5330,1959,3541,6394,1212,3027,1995,1375,2610,1015,29452,29469,29456,29478,5857,2100,1300,1256,2104,10041,1551,20874,16624,3181,1287,1406,3005,17762,29351,1393954944,23,67,976,13692,397,64995,56563,0,1,3,0
Wait,26:02.3,29351,29364,2764,5348,1981,3528,6376,1164,3019,2030,1388,2562,1001,29425,29438,29474,29434,5822,2148,1283,1287,2104,10063,1564,20641,16272,3172,1287,1410,3045,17789,29333,1394020992,25,66,973,13692,397,64995,56563,0,1,3,0
Wait,26:02.4,29359,29381,2772,5330,1981,3555,6420,1168,3023,2012,1366,2570,1023,29504,29452,29456,29518,5840,2122,1327,1335,2091,10023,1586,21471,17340,3216,1300,1379,3010,17784,29373,1394087552,23,65,974,13692,397,64995,56563,0,1,3,0
Wait,26:02.5,29346,29333,2786,5321,1959,3585,6402,1186,3023,2074,1401,2557,1010,29434,29434,29430,29447,5818,2153,1309,1313,2100,10019,1573,21058,17222,3221,1344,1357,3014,17740,29315,1394154240,26,66,972,13692,397,64995,56563,0,1,3,0
Wait,26:02.6,29399,29368,2755,5330,1990,3577,6376,1177,3067,2039,1357,2562,993,29474,29562,29474,29460,5822,2074,1309,1305,2069,10019,1568,20922,16848,3133,1318,1406,3005,17736,29395,1394220800,26,68,974,13692,397,64995,56563,0,1,3,0
Wait,26:02.7,29351,29346,2803,5343,1990,3555,6389,1160,3067,2034,1379,2605,1028,29513,29430,29474,29482,5835,2109,1318,1278,2109,10050,1577,22473,18672,3164,1296,1401,3023,17727,29359,1394286336,23,67,973,13692,397,64995,56563,0,1,3,0
Wait,26:02.8,29333,29399,2742,5326,1973,3546,6350,1190,3010,2052,1393,2592,993,29474,29487,29465,29482,5831,2113,1322,1283,2074,10050,1595,23128,18663,3159,1313,1401,3032,17740,29342,1394352256,23,66,973,13692,397,64995,56563,0,1,3,0
Wait,26:02.9,29386,29351,2777,5321,1959,3581,6354,1217,3058,2012,1331,2583,993,29469,29408,29465,29430,5879,2131,1349,1278,2078,10032,1608,22882,19059,3186,1318,1371,3036,17745,29355,1394418304,24,70,972,13692,397,64995,56563,0,1,3,0
Wait,26:03.0,29355,29368,2724,5326,1924,3572,6402,1204,3067,2047,1397,2570,1010,29496,29491,29504,29482,5871,2100,1327,1309,2100,10050,1560,23563,18808,3172,1265,1371,3032,17775,29342,1394486528,24,70,972,13692,397,64995,56563,0,1,3,0
Wait,26:03.1,29364,29355,2742,5326,1942,3563,6394,1186,3049,2017,1357,2562,1015,29469,29469,29456,29438,5809,2157,1331,1252,2113,10050,1573,22438,19291,3164,1318,1384,3032,17775,29381,1394552192,23,66,973,13692,397,64995,56563,0,1,3,0
Wait,26:03.2,29355,29337,2764,5343,1973,3563,6363,1186,3036,2065,1357,2575,1001,29482,29390,29399,29434,5822,2087,1305,1278,2078,10032,1564,25215,21638,3159,1278,1366,3045,17789,29333,1394617856,24,68,972,13692,397,64995,56563,0,1,3,0
Wait,26:03.3,29355,29412,2764,5295,1964,3528,6389,1177,3023,2065,1362,2579,984,29496,29452,29443,29447,5849,2113,1335,1261,2078,10054,1546,25611,21678,3137,1283,1379,2997,17780,29368,1394685568,25,67,972,13692,397,64995,56563,0,1,3,0
Wait,26:03.4,29355,29315,2755,5295,1955,3524,6407,1177,3045,2030,1375,2504,1006,29478,29425,29465,29469,5866,2109,1366,1291,2069,9979,1529,29465,29425,3146,1305,1397,3010,17723,29359,1394751616,23,67,974,13692,397,64995,56563,0,1,3,0
Wait,26:03.5,29351,29368,2808,5330,1977,3528,6416,1221,3041,2052,1401,2548,984,29438,29408,29434,29456,5871,2157,1335,1305,2074,10059,1533,29438,27892,3120,1270,1393,3058,17701,29359,1394817792,26,68,972,13692,397,64995,56563,0,1,3,0
Wait,26:03.6,29307,29293,2733,5317,1995,3577,6385,1146,3036,2043,1415,2583,971,29447,29438,29399,29443,5827,2122,1313,1283,2109,10067,1555,29430,28327,3150,1318,1397,3054,17740,29351,1394883456,23,68,973,13692,397,64995,56563,0,1,3,0
Wait,26:03.7,29351,29469,2742,5339,1986,3537,6389,1151,3045,2034,1388,2592,1010,29522,29469,29500,29496,5844,2122,1291,1305,2083,10041,1586,29548,29522,3164,1313,1344,3010,17767,29408,1394951040,26,67,972,13692,397,64995,56563,0,1,3,0
Wait,26:03.8,29491,29381,2746,5343,1990,3568,6398,1177,3027,2056,1384,2592,997,29399,29425,29337,29311,5857,2131,1335,1305,2113,10028,1560,29276,27729,3155,1265,1371,3036,17780,29496,1395019776,24,65,973,13692,397,64995,56563,0,1,3,0
Wait,26:03.9,29390,29342,2772,5321,1981,3555,6407,1190,3049,2043,1406,2619,1001,29443,29474,29416,29456,5809,2122,1331,1318,2100,10010,1551,29509,29469,3150,1274,1371,3036,17740,29329,1395085184,25,68,974,13692,397,64995,56563,0,1,3,0
Wait,26:04.0,29386,29377,2750,5339,1977,3537,6394,1173,3027,2047,1379,2575,1019,29465,29456,29425,29474,5932,2118,1287,1265,2104,10032,1599,29408,29438,3164,1327,1366,3027,17784,29333,1395151104,25,66,972,13692,397,64995,56563,0,1,3,0
Wait,26:04.1,29351,29416,2750,5321,1955,3550,6385,1177,3019,2096,1388,2566,993,29513,29465,29491,29469,5919,2104,1318,1239,2100,10019,1520,29544,29434,3190,1322,1384,3049,17841,29320,1395218432,23,65,972,13692,397,64995,56563,0,1,3,0
Wait,26:04.2,29346,29425,2786,5330,1942,3537,6354,1190,3045,2003,1379,2583,997,29504,29478,29474,29421,5901,2122,1327,1278,2087,10050,1590,29434,29460,3186,1287,1410,3045,17846,29377,1395286272,26,69,976,13692,397,64995,56563,0,1,3,0
Wait,26:04.3,29355,29346,2772,5352,1955,3568,6389,1182,3036,2030,1406,2562,993,29456,29425,29460,29482,5906,2096,1322,1270,2126,10041,1555,29465,29474,3190,1300,1397,3027,17815,29329,1395352448,23,69,973,13692,397,64995,56563,0,1,3,0
Wait,26:04.4,29342,29416,2759,5330,1973,3568,6394,1221,3027,2043,1401,2575,997,29482,29403,29434,29469,5910,2140,1296,1296,2087,10015,1612,29447,29447,3172,1327,1371,3019,17802,29386,1395420672,24,67,973,13692,397,64995,56563,0,1,3,0
Wait,26:04.5,29373,29359,2707,5339,1981,3541,6367,1186,3010,2047,1340,2579,1001,29487,29390,29425,29425,5915,2122,1327,1291,2118,10015,1533,29412,29377,3199,1287,1371,3062,17841,29342,1395488640,26,66,972,13692,397,64995,56563,0,1,3,0
Wait,26:04.6,29311,29421,2737,5339,1973,3541,6376,1182,3023,2034,1340,2570,1059,29526,29465,29465,29452,5888,2100,1300,1261,2104,10063,1573,29421,29482,3199,1318,1388,3049,17824,29386,1395556736,23,70,972,13692,397,64995,56563,0,1,3,0
Wait,26:04.7,29346,29346,2777,5321,1968,3524,6336,1212,3041,2047,1397,2553,966,29469,29443,29482,29425,5871,2113,1270,1270,2078,10050,1560,29474,29443,3212,1309,1366,3032,17802,29425,1395624192,23,67,975,13692,397,64995,56563,0,1,3,0
Wait,26:04.8,29377,29377,2755,5343,1959,3581,6389,1195,3054,2069,1379,2531,1023,29487,29487,29452,29469,5893,2113,1309,1270,2100,10023,1542,29513,29443,3190,1322,1349,3032,17824,29403,1395690112,24,65,973,13692,397,64995,56563,0,1,3,0
Wait,26:04.9,29364,29333,2772,5334,1986,3533,6389,1177,3062,2052,1366,2522,997,29460,29452,29438,29412,5888,2122,1353,1239,2100,10045,1564,29465,29430,3172,1309,1397,3027,17806,29342,1395756288,22,68,976,13692,397,64995,56563,0,1,3,0
Wait,26:05.0,29395,29368,2737,5330,1946,3559,6389,1168,3058,2039,1362,2548,997,29526,29474,29469,29478,5919,2131,1274,1283,2061,10001,1577,29478,29465,3199,1274,1423,3019,17797,29434,1395824256,25,68,975,13692,397,64995,56563,0,1,3,0
Wait,26:05.1,29447,29381,2759,5312,1986,3506,6411,1173,3023,2043,1344,2557,1019,29421,29342,29302,29333,5923,2091,1274,1287,2109,10041,1551,29289,29390,3155,1313,1393,3014,17837,29403,1395892352,27,66,973,13692,397,64995,56563,0,1,3,0
Wait,26:05.2,29359,29395,2733,5356,1981,3541,6385,1208,3001,2039,1362,2570,1019,29531,29465,29474,29474,5875,2100,1313,1270,2083,10041,1577,29496,29456,3216,1331,1384,3023,17824,29351,1395957888,25,69,973,13692,397,64995,56563,0,1,3,0
Wait,26:05.3,29487,29403,2764,5308,1995,3537,6407,1155,3014,2034,1335,2566,1019,29425,29364,29311,29232,5871,2126,1305,1270,2113,9993,1564,29381,29346,3181,1344,1401,3062,17824,29438,1396026624,26,70,975,13692,397,64995,56563,0,1,3,0
Wait,26:05.4,29329,29333,2733,5308,1955,3520,6420,1186,3058,2017,1375,2570,1010,29513,29443,29399,29482,5871,2104,1313,1270,2087,10010,1551,29491,29434,3186,1300,1375,3027,17802,29381,1396091904,25,69,975,13692,397,64995,56563,0,1,3,0
Wait,26:05.5,29368,29355,2755,5334,1977,3572,6394,1186,3005,2043,1375,2553,1001,29469,29465,29469,29452,5897,2087,1309,1270,2078,10023,1551,29513,29478,3208,1335,1375,3045,17854,29399,1396159488,22,65,974,13692,397,64995,56563,0,1,3,0
Wait,26:05.6,29346,29364,2768,5343,1981,3568,6385,1204,3027,2047,1384,2557,984,29482,29438,29438,29447,5866,2144,1331,1283,2065,10045,1604,29456,29421,3234,1344,1388,3067,17824,29351,1396225408,25,70,975,13692,397,64995,56563,0,1,3,0
Wait,26:05.7,29412,29390,2742,5348,1986,3541,6380,1190,3014,2039,1388,2583,1037,29504,29434,29460,29465,5857,2113,1313,1287,2104,9997,1564,29518,29491,3194,1291,1375,3023,17811,29381,1396291072,24,68,973,13692,397,64995,56563,0,1,3,0
Wait,26:05.8,29412,29377,2790,5339,1986,3559,6389,1195,3067,2030,1375,2553,1037,29496,29487,29460,29469,5910,2083,1331,1296,2087,10041,1564,29482,29478,3190,1318,1393,3067,17863,29381,1396357504,22,65,973,13692,397,64995,56563,0,1,3,0
Wait,26:05.9,29403,29403,2755,5304,1977,3541,6367,1173,3032,2056,1371,2575,1032,29504,29482,29469,29496,5901,2087,1322,1327,2096,10001,1582,29500,29478,3186,1331,1371,3062,17828,29377,1396423424,27,66,976,13692,397,64995,56563,0,1,3,0
Wait,26:06.0,29333,29381,2790,5312,1946,3550,6433,1199,3027,2047,1366,2583,1037,29447,29474,29452,29478,5919,2100,1318,1278,2118,10059,1546,29487,29412,3216,1318,1401,3062,17850,29351,1396491264,23,68,973,13692,397,64995,56563,0,1,3,0
Wait,26:06.1,29315,29447,2777,5330,1964,3577,6376,1173,3054,2043,1384,2535,1006,29526,29504,29522,29482,5866,2126,1305,1305,2100,10023,1582,29469,29425,3150,1296,1388,3019,17881,29395,1396558848,24,67,972,13692,397,64995,56563,0,1,3,0
Wait,26:06.2,29377,29329,2790,5334,1937,3572,6363,1177,3041,2008,1375,2588,997,29531,29430,29447,29430,5893,2083,1327,1287,2096,10059,1599,29465,29452,3199,1309,1375,3071,17837,29395,1396624768,23,66,975,13692,397,64995,56563,0,1,3,0
Wait,26:06.3,29368,29320,2786,5361,1995,3581,6372,1186,3032,2025,1397,2610,1037,29509,29500,29456,29482,5932,2135,1300,1287,2131,10072,1560,29478,29469,3164,1335,1393,3027,17819,29324,1396689792,26,69,975,13692,397,64995,56563,0,1,3,0
Wait,26:06.4,29399,29271,2742,5326,1946,3568,6385,1160,3049,2030,1349,2570,984,29482,29478,29421,29456,5906,2074,1287,1296,2104,10010,1560,29460,29438,3199,1322,1375,3036,17833,29377,1396757248,25,66,975,13692,397,64995,56563,0,1,3,0
Wait,26:06.5,29430,29452,2755,5295,1990,3563,6385,1182,3036,2039,1393,2610,1010,29465,29408,29346,29324,5884,2109,1305,1291,2096,10067,1520,29368,29355,3238,1300,1362,3049,17868,29416,1396826752,23,67,971,13692,397,64995,56563,0,1,3,0
Wait,26:06.6,29425,29430,2755,5273,1946,3524,6332,1239,3027,2052,1375,2566,979,29474,29469,29474,29460,5827,2083,1300,1283,2091,10028,1546,29443,29474,3186,1283,1401,3041,17833,29390,1396891520,24,67,976,13692,397,64995,56563,0,1,3,0
Wait,26:06.7,29399,29359,2759,5321,1955,3550,6363,1173,3067,2065,1366,2548,1045,29504,29443,29395,29438,5901,2118,1305,1296,2096,9988,1582,29434,29438,3221,1305,1375,3093,17859,29390,1396958208,24,67,974,13692,397,64995,56563,0,1,3,0
Wait,26:06.8,29342,29377,2755,5352,1977,3528,6358,1186,3071,2052,1379,2557,984,29487,29460,29526,29487,5844,2126,1309,1296,2087,10006,1573,29496,29434,3208,1296,1388,3036,17846,29373,1397025536,24,68,973,13692,397,64995,56563,0,1,3,0
Wait,26:06.9,29438,29355,2759,5326,1999,3572,6372,1177,3027,2047,1393,2553,1028,29469,29368,29416,29373,5875,2135,1335,1287,2100,10037,1542,29416,29377,3177,1327,1362,3049,17841,29452,1397094144,27,66,972,13692,397,64995,56563,0,1,3,0
Wait,26:07.0,29443,29377,2750,5330,2003,3546,6380,1164,3058,2043,1366,2553,1006,29447,29364,29346,29395,5888,2104,1335,1265,2087,10001,1573,29403,29381,3186,1318,1379,3019,17819,29496,1397162368,25,67,973,13692,397,64995,56563,0,1,3,0
Wait,26:07.1,29315,29403,2759,5317,1968,3546,6394,1182,3023,2025,1406,2553,971,29434,29421,29403,29452,5893,2148,1340,1278,2096,10054,1582,29386,29456,3190,1296,1397,3080,17841,29302,1397227904,24,66,973,13692,397,64995,56563,0,1,3,0
Wait,26:07.2,29355,29368,2746,5304,1990,3541,6389,1186,3019,2021,1375,2575,979,29456,29465,29447,29460,5813,2104,1296,1270,2087,9988,1538,29452,29482,3186,1313,1384,3036,17802,29355,1397295744,24,67,975,13692,397,64995,56563,0,1,3,0
Wait,26:07.3,29381,29324,2724,5295,1986,3594,6398,1173,3076,2034,1419,2597,975,29478,29443,29456,29460,5844,2113,1291,1274,2083,10015,1577,29443,29434,3190,1313,1375,3062,17833,29315,1397361664,25,70,977,13692,397,64995,56563,0,1,3,0
Wait,26:07.4,29329,29412,2742,5286,2012,3520,6380,1217,3032,2030,1401,2601,1041,29465,29491,29430,29465,5866,2109,1309,1318,2118,10010,1595,29465,29474,3221,1318,1371,3032,17859,29377,1397430016,25,67,973,13692,397,64995,56563,0,1,3,0
Wait,26:07.5,29329,29333,2746,5312,1999,3537,6358,1173,2997,2030,1406,2583,1019,29487,29447,29373,29438,5827,2100,1296,1313,2091,10059,1577,29430,29469,3177,1300,1397,3036,17846,29346,1397495680,23,66,972,13692,397,64995,56563,0,1,3,0
Wait,26:07.6,29351,29395,2781,5348,1951,3568,6363,1186,3010,2065,1371,2605,1045,29478,29478,29443,29425,5862,2122,1309,1283,2065,10028,1590,29438,29509,3203,1300,1397,3010,17850,29368,1397562240,24,66,972,13692,397,64995,56563,0,1,3,0
Wait,26:07.7,29381,29416,2764,5326,1968,3546,6363,1173,3019,1999,1366,2601,971,29518,29447,29478,29469,5871,2131,1318,1287,2069,10054,1551,29460,29496,3194,1287,1371,3010,17881,29381,1397630208,22,68,973,13692,397,64995,56563,0,1,3,0
Wait,26:07.8,29342,29377,2764,5317,1981,3533,6358,1173,3058,2047,1371,2597,1032,29500,29443,29425,29434,5866,2118,1327,1256,2069,9997,1573,29452,29421,3137,1318,1437,3080,17837,29302,1397697792,24,67,972,13692,397,64995,56563,0,1,3,0
Wait,26:07.9,29403,29403,2790,5312,1981,3537,6424,1212,3032,2043,1366,2544,1023,29478,29478,29482,29482,5906,2104,1300,1265,2047,10019,1604,29456,29500,3177,1287,1366,3036,17837,29373,1397764224,24,67,973,13692,397,64995,56563,0,1,3,0
Wait,26:08.0,29425,29364,2746,5295,1973,3572,6389,1164,3023,2056,1441,2575,1010,29460,29324,29368,29434,5840,2148,1340,1261,2091,10045,1573,29395,29315,3159,1278,1362,3014,17859,29403,1397832704,25,69,975,13692,397,64995,56563,0,1,3,0
Wait,26:08.1,29373,29395,2724,5299,1973,3559,6389,1182,3032,2065,1432,2583,1037,29513,29460,29504,29496,5901,2122,1313,1265,2087,10015,1568,29540,29535,3216,1309,1415,3054,17854,29377,1397900800,25,67,975,13692,397,64995,56563,0,1,3,0
Wait,26:08.2,29368,29355,2733,5304,1995,3555,6345,1168,3054,2030,1362,2570,1010,29456,29421,29478,29425,5897,2126,1300,1270,2113,10032,1577,29421,29403,3208,1278,1410,3049,17775,29355,1397969024,23,68,973,13692,397,64995,56563,0,1,3,0
Wait,26:08.3,29390,29373,2772,5312,1990,3541,6332,1182,3076,2043,1388,2610,1010,29469,29474,29496,29482,5884,2148,1313,1283,2083,9997,1586,29421,29465,3181,1322,1393,3067,17863,29403,1398037376,30,70,974,13692,397,64995,56563,0,1,3,0
Wait,26:08.4,29399,29373,2764,5282,2003,3550,6380,1204,3058,2052,1410,2601,993,29474,29438,29416,29395,5840,2096,1291,1283,2047,10023,1546,29421,29443,3181,1335,1415,3098,17837,29386,1398104448,26,70,975,13692,397,64995,56563,0,1,3,0
Wait,26:08.5,29333,29377,2786,5312,1999,3563,6376,1151,3032,2047,1371,2601,1010,29548,29491,29469,29487,5888,2113,1318,1270,2052,10089,1573,29491,29474,3155,1287,1375,3041,17859,29337,1398173696,23,66,970,13692,397,64995,56563,0,1,3,0
Wait,26:08.6,29399,29456,2746,5348,2030,3559,6345,1204,3058,2087,1419,2583,1037,29469,29434,29465,29460,5871,2144,1331,1287,2100,10081,1582,29452,29430,3216,1313,1366,3067,17881,29421,1398242304,26,70,973,13692,397,64995,56563,0,1,3,0
Wait,26:08.7,29364,29311,2764,5321,1959,3581,6372,1182,3027,2065,1410,2579,1032,29531,29535,29465,29500,5893,2122,1291,1296,2078,10028,1612,29491,29465,3216,1305,1384,2997,17859,29333,1398310016,25,67,973,13692,397,64995,56563,0,1,3,0
Wait,26:08.8,29412,29386,2733,5317,1986,3520,6372,1168,3062,2069,1353,2557,1015,29548,29447,29447,29482,5866,2104,1305,1226,2122,10019,1560,29469,29465,3190,1313,1406,3041,17859,29390,1398377472,25,68,972,13692,397,64995,56563,0,1,3,0
Wait,26:08.9,29364,29364,2794,5304,1968,3555,6376,1204,3058,2025,1366,2592,1001,29491,29452,29421,29452,5849,2153,1349,1287,2100,10006,1542,29447,29408,3177,1335,1384,3023,17837,29351,1398446080,22,67,975,13692,397,64995,56563,0,1,3,0
Wait,26:09.0,29430,29447,2737,5299,2021,3590,6336,1190,3067,2047,1388,2566,993,29482,29377,29452,29368,5893,2104,1340,1283,2074,10059,1582,29368,29399,3186,1340,1353,3076,17894,29509,1398517248,23,69,972,13692,397,64995,56563,0,1,3,0
Wait,26:09.1,29416,29355,2755,5321,1990,3546,6376,1190,3027,2052,1393,2540,1028,29478,29456,29430,29416,5888,2113,1327,1296,2096,10006,1551,29438,29469,3190,1283,1384,3041,17885,29460,1398586240,24,66,974,13692,397,64995,56563,0,1,3,0
Wait,26:09.2,29395,29377,2803,5304,1986,3568,6407,1168,3049,2047,1393,2570,1019,29465,29504,29513,29438,5831,2126,1309,1261,2074,10050,1573,29478,29496,3212,1322,1423,3019,17872,29386,1398652800,23,64,971,13692,397,64995,56563,0,1,3,0
Wait,26:09.3,29329,29351,2746,5339,1977,3563,6350,1190,3054,2061,1366,2592,993,29478,29390,29403,29443,5875,2104,1305,1270,2104,10037,1568,29452,29425,3208,1291,1397,3067,17824,29351,1398719616,26,68,974,13692,397,64995,56563,0,1,3,0
Wait,26:09.4,29311,29355,2759,5339,1959,3559,6402,1177,3058,2047,1406,2566,984,29469,29491,29456,29430,5893,2153,1322,1243,2100,10045,1582,29496,29487,3208,1305,1401,3062,17841,29355,1398785792,26,68,973,13692,397,64995,56563,0,1,3,0
Wait,26:09.5,29333,29421,2768,5334,1968,3537,6407,1199,3032,2030,1415,2557,1041,29465,29518,29452,29465,5937,2131,1331,1313,2091,10023,1617,29421,29478,3172,1318,1401,3036,17872,29320,1398853888,26,65,972,13692,397,64995,56563,0,1,3,0
Wait,26:09.6,29381,29355,2777,5312,1977,3577,6376,1234,3014,2043,1410,2588,1028,29452,29447,29465,29425,5879,2118,1309,1278,2104,10019,1564,29456,29443,3194,1309,1375,3062,17824,29342,1398920064,24,69,973,13692,397,64995,56563,0,1,3,0
Wait,26:09.7,29416,29421,2790,5317,1990,3546,6385,1186,3032,2017,1366,2553,1006,29474,29403,29465,29443,5862,2109,1287,1283,2109,10006,1582,29478,29460,3172,1340,1384,3041,17876,29329,1398987520,26,70,975,13692,397,64995,56563,0,1,3,0
Wait,26:09.8,29377,29368,2777,5348,1955,3524,6380,1151,3010,2030,1410,2588,1010,29478,29460,29434,29421,5893,2109,1305,1300,2109,10037,1586,29408,29443,3186,1309,1406,3023,17841,29311,1399054592,25,68,976,13692,397,64995,56563,0,1,3,0
Wait,26:09.9,29395,29351,2750,5343,1924,3546,6336,1186,3049,2030,1393,2566,1019,29513,29478,29491,29438,5901,2122,1322,1313,2091,10041,1590,29408,29416,3190,1313,1401,3054,17885,29434,1399121920,22,66,974,13692,397,64995,56563,0,1,3,0
Wait,26:10.0,29333,29337,2742,5308,1995,3502,6354,1177,3062,2039,1366,2570,984,29518,29456,29487,29434,5857,2104,1318,1261,2100,10045,1599,29465,29460,3172,1327,1388,3005,17846,29373,1399189120,26,69,972,13692,397,64995,56563,0,1,3,0
Wait,26:10.1,29346,29333,2764,5356,2012,3559,6385,1168,3041,2034,1335,2557,1010,29500,29447,29509,29412,5897,2135,1331,1305,2069,10032,1560,29452,29438,3194,1296,1388,3045,17846,29386,1399255808,25,67,974,13692,397,64995,56563,0,1,3,0
Wait,26:10.2,29377,29412,2737,5291,1968,3537,6394,1168,3045,2034,1388,2553,1001,29478,29460,29456,29421,5893,2109,1313,1265,2087,10063,1546,29469,29465,3186,1313,1415,3062,17850,29311,1399324416,24,66,972,13692,397,64995,56563,0,1,3,0
Wait,26:10.3,29399,29373,2772,5348,1973,3528,6380,1125,3005,2021,1335,2583,975,29465,29434,29478,29482,5915,2113,1309,1300,2078,10045,1542,29491,29425,3181,1322,1388,3076,17828,29373,1399393792,25,68,975,13692,397,64995,56563,0,1,3,0
Wait,26:10.4,29364,29395,2737,5348,1999,3563,6372,1168,3019,2025,1371,2548,988,29465,29443,29434,29438,5910,2104,1322,1248,2078,10050,1564,29438,29474,3164,1322,1375,3041,17903,29337,1399462400,23,69,975,13692,397,64995,56563,0,1,3,0
Wait,26:10.5,29390,29425,2707,5321,1986,3537,6376,1186,3067,2039,1397,2562,1023,29430,29456,29474,29496,5884,2100,1283,1309,2104,10015,1568,29509,29438,3199,1283,1419,3023,17916,29351,1399531520,24,65,972,13692,397,64995,56563,0,1,3,0
Wait,26:10.6,29311,29399,2755,5304,1964,3585,6389,1204,3014,2083,1388,2535,1028,29491,29425,29373,29460,5857,2100,1349,1256,2087,10001,1551,29425,29452,3199,1305,1349,3062,17841,29342,1399597952,24,67,973,13692,397,64995,56563,0,1,3,0
Wait,26:10.7,29403,29381,2772,5330,1968,3563,6341,1146,3036,2061,1362,2575,1015,29544,29469,29491,29474,5871,2096,1309,1331,2126,10015,1568,29474,29487,3208,1313,1401,3032,17837,29373,1399664768,25,67,973,13692,397,64995,56563,0,1,3,0
Wait,26:10.8,29452,29373,2755,5330,1968,3489,6380,1195,3036,2034,1379,2570,1019,29509,29452,29460,29460,5857,2096,1318,1278,2113,10010,1604,29416,29465,3150,1309,1379,3023,17846,29395,1399731072,25,67,977,13692,397,64995,56563,0,1,3,0
Wait,26:10.9,29342,29443,2742,5312,1981,3568,6394,1199,3041,1990,1388,2610,1015,29522,29491,29491,29465,5879,2074,1322,1287,2118,9997,1608,29469,29474,3186,1340,1344,3045,17898,29412,1399799424,24,67,974,13692,397,64995,56563,0,1,3,0
Wait,26:11.0,29403,29377,2737,5326,1959,3524,6376,1155,3036,2017,1371,2562,1019,29500,29438,29518,29474,5862,2100,1327,1305,2096,10045,1582,29482,29430,3142,1309,1406,3023,17854,29430,1399865344,22,68,973,13692,397,64995,56563,0,1,3,0
Wait,26:11.1,29412,29443,2790,5352,1942,3533,6398,1204,3041,2052,1375,2544,988,29518,29403,29416,29478,5906,2118,1291,1305,2087,10076,1516,29452,29416,3199,1309,1401,3071,17890,29438,1399933056,24,71,974,13692,397,64995,56563,0,1,3,0
Wait,26:11.2,29412,29390,2772,5312,1973,3541,6385,1160,3032,2034,1353,2588,1010,29531,29491,29535,29469,5875,2122,1344,1283,2100,10037,1564,29452,29452,3168,1327,1384,3019,17815,29373,1399998720,26,66,973,13692,397,64995,56563,0,1,3,0
Wait,26:11.3,29364,29355,2750,5348,1964,3555,6341,1177,3093,2025,1397,2570,988,29469,29474,29469,29438,5888,2135,1305,1256,2087,10041,1577,29478,29443,3190,1261,1393,3041,17837,29381,1400064896,25,67,972,13692,397,64995,56563,0,1,3,0
Wait,26:11.4,29399,29337,2733,5374,1977,3520,6385,1204,3010,2034,1388,2553,1010,29522,29465,29500,29491,5862,2113,1327,1252,2078,10028,1564,29469,29482,3208,1309,1357,3054,17841,29412,1400131968,25,68,972,13692,397,64995,56563,0,1,3,0
Wait,26:11.5,29381,29399,2750,5339,1968,3537,6367,1177,3019,2034,1375,2522,1001,29474,29430,29390,29469,5888,2109,1344,1300,2122,10050,1582,29443,29469,3199,1313,1362,3036,17885,29377,1400200320,25,68,975,13692,397,64995,56563,0,1,3,0
Wait,26:11.6,29421,29329,2755,5352,1964,3528,6376,1142,3036,2034,1406,2544,975,29509,29434,29504,29447,5831,2148,1305,1296,2087,10015,1551,29482,29434,3203,1305,1406,3041,17828,29373,1400267520,24,67,971,13692,397,64995,56563,0,1,3,0
Wait,26:11.7,29386,29333,2768,5308,1968,3524,6319,1195,3045,2069,1397,2553,1028,29491,29421,29478,29425,5844,2104,1313,1291,2083,10006,1577,29460,29504,3190,1322,1375,3067,17806,29403,1400336768,25,71,972,13692,397,64995,56563,0,1,3,0
Wait,26:11.8,29434,29329,2772,5291,1959,3533,6372,1177,3045,2043,1415,2588,1001,29513,29491,29482,29469,5897,2065,1287,1274,2069,10010,1590,29465,29474,3212,1331,1379,3036,17868,29443,1400404736,22,68,975,13692,397,64995,56563,0,1,3,0
Wait,26:11.9,29390,29346,2724,5295,1964,3515,6345,1173,3089,2056,1415,2548,1015,29583,29469,29474,29474,5879,2135,1331,1291,2091,10023,1582,29496,29456,3194,1296,1388,3036,17846,29416,1400472960,24,65,974,13692,397,64995,56563,0,1,3,0
Wait,26:12.0,29434,29465,2724,5321,1955,3541,6358,1142,3027,2039,1379,2610,1010,29500,29474,29474,29469,5879,2118,1305,1278,2083,10023,1617,29491,29447,3186,1327,1393,3067,17898,29408,1400542720,24,68,975,13692,397,64995,56563,0,1,3,0
Wait,26:12.1,29443,29381,2764,5352,2003,3550,6394,1204,3032,2030,1415,2583,1076,29509,29460,29518,29478,5928,2144,1331,1296,2140,10059,1560,29500,29478,3199,1287,1428,3045,17872,29430,1400610816,25,69,974,13692,397,64995,56563,0,1,3,0
Wait,26:12.2,29425,29395,2786,5304,1951,3568,6372,1168,3041,2030,1366,2562,1037,29522,29482,29500,29496,5879,2144,1357,1291,2083,10019,1608,29452,29504,3186,1300,1375,3071,17868,29430,1400679040,26,65,973,13692,397,64995,56563,0,1,3,0
Wait,26:12.3,29425,29434,2838,5339,2008,3528,6380,1182,3067,2056,1393,2597,1028,29500,29540,29452,29465,5893,2109,1274,1296,2122,10019,1582,29434,29438,3216,1366,1401,3071,17868,29421,1400747904,23,64,975,13692,397,64995,56563,0,1,3,0
Wait,26:12.4,29430,29351,2750,5317,1973,3568,6407,1160,3049,2039,1366,2540,988,29504,29478,29513,29465,5897,2122,1309,1291,2162,10015,1573,29522,29438,3172,1296,1406,3045,17898,29425,1400816256,24,68,973,13692,397,64995,56563,0,1,3,0
Wait,26:12.5,29438,29416,2755,5343,2003,3524,6376,1208,3027,2034,1410,2562,1028,29540,29487,29500,29544,5879,2144,1322,1278,2087,10085,1577,29500,29518,3168,1296,1349,3036,17846,29443,1400884608,25,65,972,13692,397,64995,56563,0,1,3,0
Wait,26:12.6,29386,29421,2777,5330,1977,3520,6402,1173,3023,2043,1362,2575,1006,29526,29469,29487,29456,5928,2126,1313,1186,2109,10019,1568,29482,29460,3199,1296,1375,3049,17876,29425,1400955008,25,65,974,13692,397,64995,56563,0,1,3,0
Wait,26:12.7,29478,29421,2759,5317,1986,3533,6367,1204,3041,2021,1353,2588,1028,29478,29548,29518,29491,5888,2096,1331,1309,2100,10019,1608,29487,29491,3186,1291,1401,3058,17868,29487,1401024000,24,67,972,13692,397,64995,56563,0,1,3,0
Wait,26:12.8,29399,29399,2755,5326,1933,3555,6398,1186,3049,2052,1366,2553,988,29474,29496,29456,29491,5893,2109,1318,1256,2100,10045,1542,29425,29438,3203,1287,1357,3041,17876,29373,1401092736,24,66,975,13692,397,64995,56563,0,1,3,0
Wait,26:12.9,29491,29390,2772,5343,1942,3541,6376,1173,3032,2052,1397,2601,971,29500,29522,29474,29487,5897,2118,1313,1261,2087,10019,1595,29504,29447,3190,1318,1388,3041,17863,29412,1401163520,26,67,972,13692,397,64995,56563,0,1,3,0
Wait,26:13.0,29478,29337,2786,5339,1933,3555,6394,1164,3027,2052,1375,2562,1037,29557,29452,29500,29504,5893,2078,1327,1291,2096,10037,1608,29469,29487,3221,1300,1415,3049,17859,29447,1401234688,25,67,973,13692,397,64995,56563,0,1,3,0
Wait,26:13.1,29518,29399,2755,5321,1990,3555,6380,1199,3014,2056,1366,2540,1015,29478,29425,29434,29478,5932,2126,1335,1274,2056,10032,1604,29447,29425,3190,1300,1437,3032,17872,29522,1401304704,24,67,973,13692,397,64995,56563,0,1,3,0
Wait,26:13.2,29403,29421,2768,5348,1973,3568,6380,1217,3019,2052,1375,2579,1023,29482,29438,29430,29434,5888,2087,1322,1274,2113,10063,1577,29482,29456,3194,1305,1393,3054,17890,29513,1401373568,23,65,973,13692,397,64995,56563,0,1,3,0
Wait,26:13.3,29364,29438,2750,5326,1981,3550,6363,1160,3054,2021,1366,2597,984,29544,29513,29478,29474,5906,2131,1327,1274,2052,10067,1595,29513,29474,3208,1353,1384,3054,17868,29421,1401444224,23,66,974,13692,397,64995,56563,0,1,3,0
Wait,26:13.4,29390,29355,2777,5361,1981,3563,6385,1155,3010,2052,1388,2592,1032,29513,29500,29487,29500,5910,2140,1340,1283,2104,10037,1577,29482,29469,3194,1313,1441,3058,17846,29456,1401512832,25,67,972,13692,397,64995,56563,0,1,3,0
Wait,26:13.5,29377,29377,2808,5312,1990,3559,6394,1221,3041,2043,1397,2535,1006,29504,29478,29500,29509,5888,2104,1313,1239,2087,10054,1564,29496,29474,3194,1322,1393,3076,17868,29425,1401581568,24,67,976,13692,397,64995,56563,0,1,3,0
Wait,26:13.6,29395,29438,2772,5330,1973,3528,6363,1204,3010,2061,1401,2583,1032,29487,29478,29496,29460,5901,2100,1287,1248,2096,10023,1608,29509,29447,3199,1305,1335,3023,17863,29399,1401652096,22,66,973,13692,397,64995,56563,0,1,3,0
Wait,26:13.7,29399,29342,2777,5343,1990,3559,6394,1182,3041,2056,1375,2614,1006,29482,29456,29518,29452,5840,2109,1296,1300,2091,10037,1533,29452,29478,3181,1335,1375,3049,17841,29430,1401721344,24,66,974,13692,397,64995,56563,0,1,3,0
Wait,26:13.8,29425,29373,2768,5356,1964,3559,6389,1173,3036,2021,1384,2601,993,29491,29443,29509,29491,5928,2109,1318,1283,2043,10045,1582,29482,29408,3181,1362,1379,3005,17859,29416,1401791744,26,67,972,13692,397,64995,56563,0,1,3,0
Wait,26:13.9,29469,29395,2794,5334,1999,3572,6398,1195,3093,2030,1384,2570,988,29447,29311,29412,29430,5910,2118,1349,1283,2126,10054,1577,29381,29403,3199,1335,1401,3054,17898,29478,1401863424,23,65,972,13692,397,64995,56563,0,1,3,0
Wait,26:14.0,29399,29403,2737,5326,1964,3546,6358,1182,3032,2030,1375,2566,1001,29509,29447,29443,29478,5875,2118,1313,1256,2113,10054,1582,29465,29443,3159,1287,1366,3049,17881,29359,1401933056,25,66,972,13692,397,64995,56563,0,1,3,0
Wait,26:14.1,29324,29307,2786,5312,2003,3528,6407,1190,3076,2039,1384,2562,1019,29474,29390,29456,29460,5893,2118,1318,1313,2118,10045,1595,29447,29421,3168,1349,1379,3098,17859,29333,1402002048,24,70,972,13692,397,64995,56563,0,1,3,0
Wait,26:14.2,29364,29337,2746,5339,1964,3572,6354,1190,3032,2047,1397,2592,997,29500,29487,29456,29460,5888,2140,1283,1265,2078,10054,1564,29425,29438,3203,1327,1401,3041,17837,29381,1402072832,23,69,973,13692,397,64995,56563,0,1,3,0
Wait,26:14.3,29381,29421,2746,5326,1981,3559,6376,1212,3036,2069,1401,2592,993,29474,29430,29456,29465,5853,2131,1313,1256,2083,10006,1568,29399,29412,3172,1296,1406,3041,17854,29355,1402140928,26,65,973,13692,397,64995,56563,0,1,3,0
Wait,26:14.4,29364,29377,2764,5334,1942,3537,6389,1190,3036,2056,1353,2562,1045,29518,29531,29478,29513,5884,2109,1327,1296,2065,10010,1573,29487,29482,3229,1287,1397,3041,17850,29346,1402210560,25,67,973,13692,397,64995,56563,0,1,3,0
Wait,26:14.5,29395,29447,2755,5321,1955,3568,6380,1190,3058,2061,1384,2570,1006,29522,29509,29487,29496,5893,2109,1322,1291,2087,10006,1590,29491,29478,3221,1283,1393,3032,17863,29368,1402279680,23,70,975,13692,397,64995,56563,0,1,3,0
Wait,26:14.6,29377,29337,2750,5308,1990,3546,6358,1173,3027,2030,1371,2562,997,29465,29460,29482,29469,5875,2091,1340,1291,2122,10032,1586,29438,29425,3164,1349,1366,3067,17837,29395,1402349440,22,69,975,13692,397,64995,56563,0,1,3,0
Wait,26:14.7,29364,29443,2759,5343,1946,3537,6380,1186,3111,2096,1384,2575,1015,29540,29500,29443,29491,5849,2122,1300,1243,2118,10032,1564,29465,29531,3168,1274,1371,3067,17903,29324,1402418944,25,63,974,13692,397,64995,56563,0,1,3,0
Wait,26:14.8,29386,29368,2750,5361,1968,3537,6385,1195,3049,2065,1384,2575,1015,29526,29496,29416,29447,5875,2100,1327,1283,2096,10050,1604,29487,29482,3212,1296,1419,3041,17881,29381,1402487296,24,67,974,13692,397,64995,56563,0,1,3,0
Wait,26:14.9,29416,29500,2746,5312,1977,3581,6367,1186,3041,2034,1379,2583,997,29513,29474,29474,29487,5910,2113,1353,1309,2087,10067,1560,29465,29504,3146,1305,1362,3036,17876,29390,1402556672,22,66,973,13692,397,64995,56563,0,1,3,0
Wait,26:15.0,29307,29337,2768,5321,1977,3568,6394,1173,3062,2012,1384,2588,997,29487,29447,29447,29500,5857,2131,1296,1296,2091,10054,1595,29478,29425,3177,1318,1379,3076,17863,29395,1402623488,26,65,974,13692,397,64995,56563,0,1,3,0
Wait,26:15.1,29390,29460,2768,5321,1995,3541,6332,1204,3062,2061,1419,2570,1010,29496,29443,29491,29456,5888,2100,1309,1274,2078,10050,1599,29474,29496,3181,1287,1384,3062,17912,29364,1402692864,24,68,975,13692,397,64995,56563,0,1,3,0
Wait,26:15.2,29364,29329,2755,5352,1981,3537,6398,1182,3032,2052,1384,2583,1041,29443,29487,29469,29456,5901,2131,1291,1270,2104,10050,1577,29487,29438,3168,1327,1357,3023,17898,29364,1402761088,24,66,971,13692,397,64995,56563,0,1,3,0
Wait,26:15.3,29364,29438,2746,5317,1999,3550,6389,1195,3036,2039,1388,2601,1010,29487,29522,29513,29460,5888,2109,1318,1296,2083,10059,1564,29496,29526,3186,1313,1384,3071,17890,29403,1402830720,23,67,974,13692,397,64995,56563,0,1,3,0
Wait,26:15.4,29381,29359,2790,5321,1981,3555,6372,1164,3058,2065,1388,2544,1037,29469,29447,29456,29430,5849,2131,1296,1261,2104,10028,1551,29447,29447,3194,1335,1353,3054,17872,29395,1402899968,24,66,974,13692,397,64995,56563,0,1,3,0
Wait,26:15.6,29386,29381,2786,5326,1981,3559,6372,1182,3036,2021,1388,2553,1006,29460,29447,29465,29447,5884,2113,1283,1270,2083,10015,1573,29518,29421,3199,1309,1379,3036,17846,29421,1403177088,23,68,974,13692,397,64995,56563,0,1,3,0
Wait,26:15.9,29452,29377,2733,5312,1955,3594,6372,1177,3067,2003,1388,2570,1015,29395,29403,29157,29351,5897,2131,1318,1270,2052,10006,1582,29320,29390,3194,1309,1393,3023,17872,29504,1403245568,25,69,972,13692,397,64995,56563,0,1,3,0
Wait,26:16.0,29386,29346,2759,5312,1995,3577,6394,1195,3054,2025,1406,2579,1028,29482,29438,29491,29474,5849,2135,1309,1261,2118,10054,1573,29500,29496,3186,1300,1371,3049,17859,29443,1403312768,26,66,972,13692,397,64995,56563,0,1,3,0
Wait,26:16.1,29408,29381,2742,5317,1977,3524,6367,1160,3036,2069,1393,2570,984,29430,29478,29452,29460,5893,2113,1313,1291,2100,10041,1568,29447,29438,3212,1309,1384,3054,17885,29342,1403382400,23,68,973,13692,397,64995,56563,0,1,3,0
Wait,26:16.2,29364,29408,2729,5308,1981,3550,6372,1195,3041,2030,1393,2575,1015,29443,29456,29469,29452,5866,2091,1287,1300,2078,10041,1599,29504,29482,3225,1322,1410,3027,17868,29430,1403451648,22,67,974,13692,397,64995,56563,0,1,3,0
Wait,26:16.3,29390,29320,2755,5304,2003,3559,6358,1173,3023,2043,1406,2583,1001,29425,29399,29434,29438,5849,2113,1327,1270,2083,10037,1560,29430,29412,3164,1291,1410,3067,17868,29408,1403520256,24,69,974,13692,397,64995,56563,0,1,3,0
Wait,26:16.4,29377,29425,2742,5326,1981,3533,6363,1168,3014,2034,1393,2562,993,29456,29500,29487,29504,5884,2104,1340,1291,2065,10019,1582,29478,29469,3146,1340,1415,3084,17850,29443,1403588224,25,64,973,13692,397,64995,56563,0,1,3,0
Wait,26:16.5,29364,29351,2724,5321,1981,3550,6372,1177,3041,2030,1371,2588,1010,29443,29465,29381,29443,5844,2118,1300,1274,2078,10023,1573,29478,29368,3212,1318,1393,3049,17854,29430,1403654912,25,67,977,13692,397,64995,56563,0,1,3,0
Wait,26:16.6,29447,29403,2759,5317,1959,3541,6358,1168,3058,2078,1406,2562,1015,29368,29408,29293,29390,5884,2083,1305,1265,2091,10050,1564,29408,29368,3194,1318,1393,3054,17854,29430,1403721984,23,66,975,13692,397,64995,56563,0,1,3,0
Wait,26:16.7,29386,29438,2781,5308,1973,3533,6336,1186,3036,2034,1344,2553,1006,29482,29474,29465,29452,5857,2091,1340,1278,2109,10023,1582,29438,29408,3155,1327,1379,3045,17903,29425,1403790080,25,64,972,13692,397,64995,56563,0,1,3,0
Wait,26:16.8,29496,29474,2729,5321,1946,3541,6376,1217,3036,2034,1349,2619,1006,29364,29447,29368,29381,5875,2118,1327,1296,2096,10037,1564,29395,29434,3194,1309,1384,3049,17903,29540,1403859712,26,66,973,13692,397,64995,56563,0,1,3,0
Wait,26:16.9,29487,29496,2781,5317,1995,3550,6372,1155,3049,2074,1379,2540,1045,29496,29469,29469,29500,5888,2118,1287,1287,2091,10028,1577,29482,29430,3212,1300,1388,3041,17916,29416,1403928576,23,68,972,13692,397,64995,56563,0,1,3,0
Wait,26:17.0,29500,29452,2742,5330,2008,3559,6367,1173,3036,2065,1397,2575,1023,29395,29355,29395,29311,5879,2122,1287,1234,2078,10050,1564,29443,29368,3168,1327,1375,3084,17872,29509,1403998208,24,66,972,13692,397,64995,56563,0,1,3,0
Wait,26:17.1,29416,29377,2733,5334,1990,3533,6367,1177,3045,2003,1366,2531,1001,29421,29487,29474,29460,5901,2100,1296,1309,2113,10041,1604,29465,29456,3212,1309,1401,3023,17868,29416,1404065152,22,66,973,13692,397,64995,56563,0,1,3,0
Wait,26:17.2,29386,29320,2746,5317,1990,3537,6341,1182,3058,2025,1344,2566,1054,29447,29447,29482,29416,5884,2104,1327,1278,2096,10041,1573,29491,29452,3238,1287,1344,3032,17872,29337,1404132480,24,66,972,13692,397,64995,56563,0,1,3,0
Wait,26:17.3,29434,29421,2772,5282,1999,3572,6398,1186,3054,2052,1393,2562,1001,29487,29491,29504,29487,5897,2104,1274,1305,2100,10019,1564,29469,29487,3177,1313,1423,3045,17872,29412,1404199168,24,67,975,13692,397,64995,56563,0,1,3,0
Wait,26:17.4,29522,29421,2755,5334,1951,3546,6367,1177,3058,2052,1379,2583,1032,29351,29434,29285,29271,5901,2118,1300,1248,2109,10023,1590,29381,29416,3150,1335,1379,3054,17894,29548,1404266112,23,68,972,13692,397,64995,56563,0,1,3,0
Wait,26:17.5,29430,29425,2781,5326,1959,3515,6376,1151,3027,2012,1375,2570,993,29535,29509,29416,29491,5871,2135,1335,1322,2065,10037,1564,29548,29443,3199,1331,1379,3041,17903,29425,1404334464,25,66,973,13692,397,64995,56563,0,1,3,0
Wait,26:17.6,29408,29430,2781,5291,1964,3515,6363,1195,3036,2034,1410,2579,1001,29469,29434,29447,29469,5888,2131,1322,1287,2109,10067,1560,29465,29456,3229,1349,1388,3045,17903,29438,1404404096,22,68,972,13692,397,64995,56563,0,1,3,0
Wait,26:17.7,29329,29373,2746,5339,1973,3537,6363,1204,3010,2025,1384,2592,1010,29474,29425,29447,29460,5893,2113,1322,1283,2113,10037,1546,29438,29456,3177,1309,1423,3032,17868,29425,1404472064,23,65,973,13692,397,64995,56563,0,1,3,0
Wait,26:17.8,29364,29324,2742,5304,1986,3555,6367,1208,3041,2039,1384,2601,984,29430,29412,29443,29434,5884,2135,1318,1278,2109,10023,1573,29395,29395,3168,1300,1388,3071,17833,29381,1404542208,26,67,975,13692,397,64995,56563,0,1,3,0
Wait,26:17.9,29460,29355,2781,5299,1995,3550,6389,1182,3036,2052,1379,2566,984,29403,29474,29390,29355,5901,2118,1340,1313,2100,10001,1555,29390,29456,3172,1313,1375,3067,17885,29425,1404612352,25,67,974,13692,397,64995,56563,0,1,3,0
Wait,26:18.0,29430,29381,2750,5304,1911,3563,6363,1168,3019,2021,1340,2557,1028,29447,29478,29443,29469,5875,2100,1357,1296,2043,10023,1590,29487,29412,3203,1335,1379,3027,17859,29408,1404680192,23,68,973,13692,397,64995,56563,0,1,3,0
Wait,26:18.1,29377,29324,2746,5291,1946,3555,6376,1190,3045,2030,1362,2566,1028,29443,29416,29447,29430,5853,2118,1331,1300,2122,10089,1582,29399,29416,3181,1309,1349,3045,17859,29395,1404749952,24,67,976,13692,397,64995,56563,0,1,3,0
Wait,26:18.2,29364,29368,2759,5308,2012,3568,6367,1186,3067,2021,1366,2562,1010,29452,29500,29443,29452,5844,2078,1322,1305,2083,10050,1520,29430,29465,3194,1318,1375,3076,17872,29399,1404818048,24,68,973,13692,397,64995,56563,0,1,3,0
Wait,26:18.3,29434,29342,2755,5334,1951,3563,6354,1195,3032,2021,1362,2583,1019,29315,29351,29430,29452,5866,2118,1305,1256,2087,10023,1560,29438,29386,3212,1340,1362,3062,17885,29390,1404886272,26,68,971,13692,397,64995,56563,0,1,3,0
Wait,26:18.4,29395,29342,2755,5299,1986,3563,6411,1142,3036,2052,1366,2601,979,29452,29443,29434,29438,5831,2113,1313,1305,2083,10054,1577,29438,29403,3221,1296,1406,3054,17850,29399,1404954240,24,64,975,13692,397,64995,56563,0,1,3,0
Wait,26:18.5,29381,29271,2742,5352,1973,3515,6372,1195,3071,2025,1397,2566,1023,29408,29425,29496,29513,5835,2104,1322,1265,2118,10006,1524,29443,29395,3190,1327,1393,3045,17846,29373,1405024640,22,67,974,13692,397,64995,56563,0,1,3,0
Wait,26:18.6,29395,29298,2733,5299,1946,3537,6398,1186,3036,2039,1353,2544,1001,29412,29416,29509,29500,5866,2126,1291,1274,2083,10054,1555,29531,29408,3177,1296,1340,3010,17859,29368,1405093888,23,68,973,13692,397,64995,56563,0,1,3,0
Wait,26:18.7,29368,29333,2755,5308,1973,3533,6380,1164,3045,2017,1335,2610,1010,29359,29443,29412,29434,5849,2096,1309,1270,2074,10041,1586,29496,29430,3190,1283,1397,3027,17824,29408,1405162496,24,65,975,13692,397,64995,56563,0,1,3,0
Wait,26:18.8,29373,29346,2759,5317,1999,3572,6394,1199,3032,2003,1401,2562,1019,29482,29452,29469,29487,5875,2118,1305,1300,2122,10059,1590,29482,29478,3172,1309,1423,3054,17868,29381,1405232000,24,65,972,13692,397,64995,56563,0,1,3,0
Wait,26:18.9,29403,29276,2764,5326,1959,3572,6380,1221,3023,2025,1384,2557,979,29465,29443,29504,29465,5915,2087,1287,1270,2135,10023,1586,29491,29430,3216,1287,1371,3023,17824,29381,1405299840,25,69,974,13692,397,64995,56563,0,1,3,0
Wait,26:19.0,29346,29307,2764,5352,1990,3559,6389,1142,3076,2012,1375,2557,1019,29456,29456,29482,29496,5923,2104,1322,1291,2113,9997,1564,29438,29474,3203,1309,1375,3045,17876,29346,1405367040,22,67,973,13692,397,64995,56563,0,1,3,0
Wait,26:19.1,29355,29324,2781,5334,1990,3550,6385,1204,3019,2065,1375,2592,1032,29390,29452,29460,29491,5835,2087,1309,1274,2144,10010,1555,29443,29421,3142,1300,1379,3058,17872,29403,1405435136,26,65,974,13692,397,64995,56563,0,1,3,0
Wait,26:19.2,29381,29245,2746,5304,1986,3550,6367,1195,3049,2047,1379,2557,1019,29434,29373,29504,29443,5844,2131,1309,1291,2047,9984,1529,29456,29395,3155,1287,1406,3041,17850,29355,1405502336,26,69,973,13692,397,64995,56563,0,1,3,0
Wait,26:19.3,29395,29320,2742,5348,1951,3555,6380,1186,3005,2008,1349,2588,988,29412,29416,29482,29478,5866,2144,1291,1291,2100,10028,1546,29456,29403,3172,1287,1441,3014,17850,29403,1405570304,22,69,973,13692,397,64995,56563,0,1,3,0
Wait,26:19.4,29390,29223,2777,5277,1986,3537,6358,1177,3023,2056,1406,2548,1015,29456,29421,29447,29496,5875,2109,1300,1296,2104,10045,1573,29460,29421,3203,1327,1428,3071,17863,29377,1405637760,23,67,974,13692,397,64995,56563,0,1,3,0
Wait,26:19.5,29395,29307,2794,5304,1955,3546,6424,1173,3062,2061,1371,2544,1037,29460,29460,29482,29474,5866,2113,1309,1313,2087,10028,1546,29496,29447,3203,1291,1410,3058,17885,29460,1405707264,25,65,977,13692,397,64995,56563,0,1,3,0
Wait,26:19.6,29408,29276,2759,5343,2003,3541,6350,1190,3019,2043,1353,2557,1015,29434,29452,29540,29513,5875,2135,1331,1287,2113,10023,1564,29496,29386,3190,1300,1397,3036,17872,29368,1405774848,24,70,974,13692,397,64995,56563,0,1,3,0
Wait,26:19.7,29408,29337,2772,5330,1955,3616,6354,1199,3019,2052,1406,2575,1023,29456,29456,29535,29513,5888,2113,1278,1274,2113,10067,1608,29478,29469,3181,1287,1401,3062,17859,29412,1405842688,23,68,972,13692,397,64995,56563,0,1,3,0
Wait,26:19.8,29390,29333,2790,5317,1964,3585,6429,1164,3032,2030,1366,2575,997,29416,29456,29531,29522,5910,2144,1313,1270,2122,10050,1590,29504,29443,3159,1313,1423,3049,17881,29395,1405910400,23,65,973,13692,397,64995,56563,0,1,3,0
Wait,26:20.0,29403,29346,2764,5326,1968,3520,6389,1190,3023,2012,1384,2562,1001,29456,29500,29531,29491,5875,2100,1300,1261,2109,10032,1586,29482,29456,3238,1340,1371,3071,17841,29425,1405978752,25,69,973,13692,397,64995,56563,0,1,3,0
Wait,26:20.0,29482,29430,2772,5326,1946,3559,6402,1217,3036,1999,1401,2566,1010,29434,29482,29430,29487,5871,2096,1309,1283,2104,10032,1546,29443,29447,3208,1327,1401,3045,17920,29425,1406048640,24,69,976,13692,397,64995,56563,0,1,3,0
Wait,26:20.1,29408,29346,2750,5317,1951,3533,6336,1182,3036,2047,1362,2583,988,29465,29447,29469,29531,5893,2126,1335,1270,2100,10001,1564,29518,29465,3181,1296,1353,3019,17833,29421,1406116352,25,66,971,13692,397,64995,56563,0,1,3,0
Wait,26:20.2,29434,29443,2733,5291,1964,3563,6345,1173,3023,2052,1397,2557,1015,29373,29351,29456,29487,5862,2126,1309,1309,2061,10045,1568,29500,29386,3208,1309,1397,3049,17881,29491,1406184704,24,68,973,13692,397,64995,56563,0,1,3,0
Wait,26:20.3,29403,29311,2755,5326,1959,3528,6394,1190,3023,1990,1375,2570,988,29421,29447,29504,29456,5840,2144,1331,1296,2074,10041,1621,29469,29425,3172,1322,1375,3045,17833,29377,1406253312,24,68,971,13692,397,64995,56563,0,1,3,0
Wait,26:20.4,29447,29425,2759,5312,1981,3563,6389,1168,3076,2061,1384,2566,1085,29456,29452,29522,29526,5906,2104,1305,1270,2065,10023,1590,29513,29460,3159,1287,1406,3032,17876,29307,1406322688,24,67,973,13692,397,64995,56563,0,1,3,0
Wait,26:20.5,29395,29333,2799,5321,1986,3577,6363,1160,3027,2030,1384,2570,1006,29456,29452,29482,29509,5871,2109,1318,1278,2113,10032,1568,29504,29425,3225,1291,1388,3019,17868,29373,1406390272,25,67,977,13692,397,64995,56563,0,1,3,0
Wait,26:20.6,29333,29465,2733,5312,1964,3541,6363,1182,3049,2034,1375,2579,997,29522,29474,29500,29531,5893,2153,1335,1309,2078,10054,1555,29482,29416,3203,1296,1393,3005,17868,29351,1406460288,23,68,974,13692,397,64995,56563,0,1,3,0
Wait,26:20.7,29342,29403,2794,5312,1986,3528,6376,1212,3067,2039,1384,2557,1010,29381,29416,29474,29469,5906,2131,1291,1300,2131,10023,1586,29430,29482,3194,1305,1406,3067,17894,29293,1406530048,25,67,971,13692,397,64995,56563,0,1,3,0
Wait,26:20.8,29355,29377,2759,5352,1986,3563,6380,1199,3058,2052,1410,2553,988,29434,29500,29553,29500,5910,2113,1322,1274,2083,10050,1621,29540,29465,3168,1331,1401,3054,17863,29324,1406600192,26,68,974,13692,397,64995,56563,0,1,3,0
Wait,26:20.9,29289,29390,2742,5317,1981,3555,6358,1190,3023,2025,1393,2588,1023,29386,29430,29482,29504,5906,2113,1318,1256,2104,10045,1555,29430,29452,3190,1309,1410,3080,17876,29307,1406670464,24,67,975,13692,397,64995,56563,0,1,3,0
Wait,26:21.0,29307,29460,2777,5299,2008,3559,6385,1177,3027,2025,1393,2583,993,29491,29496,29491,29522,5906,2118,1340,1313,2096,10063,1573,29544,29487,3159,1335,1384,3062,17925,29368,1406738432,25,69,975,13692,397,64995,56563,0,1,3,0
Wait,26:21.1,29302,29465,2764,5295,1946,3541,6389,1177,3045,2021,1357,2562,988,29416,29465,29482,29452,5915,2109,1313,1287,2113,10028,1568,29513,29434,3186,1309,1432,3058,17916,29320,1406808448,24,68,974,13692,397,64995,56563,0,1,3,0
Wait,26:21.2,29337,29329,2772,5291,1942,3524,6389,1182,3036,2030,1327,2575,984,29408,29487,29526,29570,5857,2122,1296,1248,2061,10041,1590,29500,29438,3225,1305,1384,3045,17806,29373,1406877696,24,68,975,13692,397,64995,56563,0,1,3,0
Wait,26:21.3,29258,29390,2759,5317,1955,3533,6385,1190,3032,2012,1384,2588,1019,29381,29500,29504,29487,5919,2135,1313,1278,2122,10032,1568,29509,29416,3159,1322,1388,3058,17890,29421,1406945664,26,69,974,13692,397,64995,56563,0,1,3,0
Wait,26:21.4,29368,29359,2821,5312,1981,3541,6389,1173,3032,2052,1384,2575,1015,29469,29438,29469,29478,5857,2109,1335,1305,2104,10019,1560,29496,29447,3190,1322,1401,3049,17850,29408,1407014400,26,68,972,13692,397,64995,56563,0,1,3,0
Wait,26:21.5,29390,29386,2764,5295,1986,3555,6376,1168,3049,2039,1388,2601,1023,29390,29456,29504,29544,5888,2126,1327,1256,2065,10037,1639,29562,29447,3172,1291,1397,3032,17881,29403,1407084032,23,66,975,13692,397,64995,56563,0,1,3,0
Wait,26:21.6,29236,29320,2759,5326,1995,3559,6380,1155,3032,2021,1406,2553,1010,29368,29469,29491,29460,5884,2083,1305,1287,2104,10041,1577,29452,29430,3194,1309,1384,3001,17850,29368,1407153408,26,69,975,13692,397,64995,56563,0,1,3,0
Wait,26:21.7,29381,29315,2759,5295,2012,3572,6398,1186,3071,2021,1366,2540,1006,29412,29474,29482,29434,5879,2104,1309,1261,2118,10010,1586,29482,29456,3190,1327,1388,3005,17859,29241,1407220864,23,66,976,13692,397,64995,56563,0,1,3,0
Wait,26:21.8,29298,29315,2772,5304,1946,3568,6328,1177,3023,2047,1375,2557,993,29438,29469,29456,29443,5866,2109,1335,1291,2096,10010,1573,29465,29416,3159,1305,1371,3054,17907,29329,1407288576,23,69,976,13692,397,64995,56563,0,1,3,0
Wait,26:21.9,29254,29421,2742,5352,1968,3533,6367,1204,3045,2083,1423,2614,1001,29377,29465,29487,29452,5866,2131,1300,1256,2118,10045,1533,29482,29469,3177,1322,1388,3054,17903,29307,1407356416,25,67,975,13692,397,64995,56563,0,1,3,0
Wait,26:22.0,29311,29329,2733,5299,1937,3537,6389,1195,3058,2056,1379,2548,979,29381,29443,29460,29456,5879,2069,1340,1287,2065,10050,1577,29412,29421,3177,1322,1388,3058,17894,29307,1407424768,27,68,974,13692,397,64995,56563,0,1,3,0
Wait,26:22.1,29289,29368,2799,5299,1959,3572,6385,1160,3023,2039,1384,2570,1006,29399,29447,29482,29395,5879,2122,1335,1287,2096,10028,1568,29465,29425,3199,1305,1397,3045,17837,29351,1407494016,22,67,975,13692,397,64995,56563,0,1,3,0
Wait,26:22.2,29359,29329,2755,5330,1968,3520,6354,1190,3010,2047,1379,2522,993,29381,29438,29474,29421,5928,2104,1331,1261,2061,10037,1595,29456,29447,3190,1309,1349,3045,17833,29337,1407562368,22,66,974,13692,397,64995,56563,0,1,3,0
Wait,26:22.3,29258,29329,2755,5299,2012,3533,6376,1138,3054,2061,1335,2588,1028,29474,29452,29474,29425,5875,2140,1296,1261,2113,9997,1577,29425,29399,3199,1353,1401,3023,17859,29228,1407630464,26,66,975,13692,397,64995,56563,0,1,3,0
Wait,26:22.4,29298,29329,2777,5348,1990,3533,6376,1177,3054,2061,1375,2544,993,29425,29421,29465,29447,5893,2100,1309,1270,2113,10023,1595,29469,29482,3186,1362,1353,3036,17854,29408,1407698176,23,66,974,13692,397,64995,56563,0,1,3,0
Wait,26:22.5,29377,29342,2786,5339,1973,3559,6350,1177,3032,1995,1344,2562,997,29390,29403,29478,29425,5893,2083,1291,1300,2047,10015,1560,29430,29487,3177,1296,1362,3067,17850,29443,1407766144,22,65,976,13692,397,64995,56563,0,1,3,0
Wait,26:22.6,29386,29364,2768,5304,1990,3520,6380,1190,3032,2030,1362,2553,1006,29452,29474,29434,29460,5866,2113,1300,1252,2087,10019,1555,29478,29478,3208,1331,1384,3027,17837,29346,1407835008,25,70,973,13692,397,64995,56563,0,1,3,0
Wait,26:22.7,29368,29320,2772,5330,1968,3533,6332,1186,3014,2008,1401,2570,984,29377,29474,29425,29443,5897,2109,1331,1252,2074,10023,1573,29438,29465,3177,1274,1393,3084,17876,29342,1407904640,24,67,972,13692,397,64995,56563,0,1,3,0
Wait,26:22.8,29368,29368,2786,5317,1981,3506,6358,1195,3023,2039,1397,2553,984,29421,29469,29482,29465,5879,2122,1318,1261,2100,10037,1586,29443,29460,3164,1340,1388,3032,17828,29337,1407973888,24,66,974,13692,397,64995,56563,0,1,3,0
Wait,26:22.9,29408,29434,2777,5321,1981,3568,6363,1186,3010,2065,1379,2535,988,29421,29377,29447,29434,5884,2113,1322,1296,2087,10032,1595,29430,29474,3194,1322,1366,3076,17863,29324,1408042880,25,68,976,13692,397,64995,56563,0,1,3,0
Wait,26:23.0,29364,29289,2746,5304,1968,3537,6345,1186,2979,2052,1406,2575,1010,29474,29412,29443,29469,5919,2118,1327,1283,2104,10023,1586,29518,29395,3194,1287,1388,3032,17854,29355,1408112256,26,68,974,13692,397,64995,56563,0,1,3,0
Wait,26:23.1,29351,29447,2781,5330,1964,3520,6323,1142,3054,2061,1397,2562,1019,29403,29469,29434,29469,5871,2122,1296,1248,2109,10054,1586,29474,29434,3159,1340,1410,3093,17890,29214,1408181632,23,67,972,13692,397,64995,56563,0,1,3,0
Wait,26:23.2,29403,29351,2772,5312,1986,3528,6332,1182,3058,2052,1384,2592,1032,29452,29491,29469,29482,5879,2122,1305,1283,2109,10010,1568,29531,29491,3181,1327,1388,3027,17872,29250,1408249472,25,64,973,13692,397,64995,56563,0,1,3,0
Wait,26:23.3,29443,29434,2786,5286,1937,3559,6350,1168,3019,2034,1384,2575,1028,29443,29496,29469,29430,5893,2109,1283,1265,2074,10032,1551,29430,29452,3155,1322,1401,3067,17850,29381,1408319488,24,69,972,13692,397,64995,56563,0,1,3,0
Wait,26:23.4,29408,29377,2764,5304,1946,3568,6323,1173,3054,2052,1379,2535,1023,29469,29465,29474,29460,5875,2140,1296,1265,2083,10019,1573,29430,29482,3199,1291,1397,3014,17876,29311,1408387840,25,67,975,13692,397,64995,56563,0,1,3,0
Wait,26:23.5,29408,29386,2768,5312,1986,3506,6363,1168,3036,2043,1406,2579,984,29403,29438,29478,29456,5862,2100,1344,1287,2096,10023,1555,29438,29443,3172,1313,1393,3062,17846,29381,1408456192,23,68,971,13692,397,64995,56563,0,1,3,0
Wait,26:23.6,29320,29395,2772,5334,1946,3537,6358,1142,3084,2034,1393,2535,984,29474,29447,29438,29456,5879,2113,1318,1270,2122,10059,1590,29434,29474,3212,1331,1401,3045,17872,29395,1408524160,25,68,977,13692,397,64995,56563,0,1,3,0
Wait,26:23.7,29276,29416,2799,5299,1955,3533,6354,1190,3036,2030,1379,2557,1019,29412,29456,29474,29465,5884,2126,1305,1309,2069,9993,1564,29447,29487,3186,1335,1327,3045,17885,29333,1408591616,24,68,973,13692,397,64995,56563,0,1,3,0
Wait,26:23.8,29324,29373,2746,5308,1999,3520,6319,1195,3019,2012,1371,2592,971,29465,29469,29460,29460,5915,2091,1335,1313,2109,10037,1577,29487,29443,3203,1340,1375,3023,17859,29329,1408659712,23,67,973,13692,397,64995,56563,0,1,3,0
Wait,26:23.9,29289,29390,2755,5291,1959,3572,6341,1116,3032,2039,1388,2579,979,29447,29465,29469,29447,5853,2113,1278,1287,2100,9993,1582,29469,29456,3216,1313,1371,3049,17824,29377,1408729344,22,67,973,13692,397,64995,56563,0,1,3,0
Wait,26:24.0,29438,29395,2733,5317,1951,3493,6367,1177,3023,2017,1340,2553,1019,29293,29329,29465,29452,5884,2135,1305,1261,2065,10045,1577,29460,29368,3194,1331,1379,3049,17872,29425,1408799360,25,67,974,13692,397,64995,56563,0,1,3,0
Wait,26:24.1,29346,29403,2790,5304,1964,3577,6380,1182,3032,2083,1366,2575,1006,29425,29465,29509,29482,5844,2096,1305,1291,2083,10019,1599,29500,29504,3177,1322,1379,2997,17868,29390,1408866944,23,68,972,13692,397,64995,56563,0,1,3,0
Wait,26:24.2,29276,29351,2803,5312,1981,3550,6297,1199,3062,2034,1340,2588,1006,29430,29465,29452,29386,5857,2096,1305,1291,2083,10041,1590,29434,29399,3208,1335,1375,3010,17841,29381,1408934528,23,66,975,13692,397,64995,56563,0,1,3,0
Wait,26:24.3,29395,29386,2764,5295,1999,3555,6345,1173,3036,2034,1393,2566,984,29465,29491,29496,29487,5862,2135,1309,1291,2083,10041,1595,29491,29447,3190,1296,1397,3058,17885,29412,1409003648,25,69,972,13692,397,64995,56563,0,1,3,0
Wait,26:24.4,29320,29447,2750,5308,1955,3563,6332,1155,2992,2030,1357,2562,1015,29395,29421,29460,29447,5805,2153,1291,1274,2122,10081,1520,15429,11228,3190,1309,1384,3010,17881,29377,1409072512,27,67,976,13692,397,64995,56563,0,1,3,0
Wait,26:24.5,29346,29377,2764,5286,1955,3506,6270,1186,3058,2008,1366,2588,966,29438,29465,29482,29460,5818,2118,1313,1243,2131,10045,1577,15618,11434,3190,1327,1379,3049,17841,29390,1409140480,25,66,973,13692,397,64995,56563,0,1,3,0
Wait,26:24.6,29386,29342,2777,5330,1977,3511,6345,1199,3005,2030,1397,2588,1054,29425,29456,29469,29434,5849,2118,1291,1265,2056,10037,1546,15635,11447,3177,1274,1450,3045,17846,29390,1409208192,25,66,978,13692,397,64995,56563,0,1,3,0
Wait,26:24.7,29395,29430,2755,5317,1973,3541,6358,1182,3001,2021,1375,2601,1006,29465,29443,29465,29496,5818,2087,1309,1287,2087,10001,1599,15855,11636,3181,1274,1410,3027,17859,29368,1409278976,23,66,974,13692,397,64995,56563,0,1,3,0
Wait,26:24.8,29425,29355,2759,5304,1986,3550,6323,1199,3027,2039,1375,2531,1010,29403,29456,29452,29487,5827,2118,1322,1287,2104,10063,1560,15723,11610,3203,1313,1384,3045,17806,29368,1409346944,24,65,973,13692,397,64995,56563,0,1,3,0
Wait,26:24.9,29373,29320,2755,5299,1990,3577,6332,1182,3027,2030,1371,2500,1023,29416,29386,29447,29460,5774,2078,1305,1270,2104,10063,1599,15719,11416,3168,1322,1423,3036,17819,29364,1409414784,23,66,978,13692,397,64995,56563,0,1,3,0
Wait,26:25.0,29469,29359,2746,5326,1955,3506,6345,1199,3067,2030,1384,2557,997,29443,29487,29513,29478,5796,2100,1283,1309,2083,10023,1604,15771,11632,3190,1327,1388,3058,17833,29425,1409482624,25,70,974,13692,397,64995,56563,0,1,3,0
Wait,26:25.1,29250,29377,2794,5282,1951,3577,6350,1221,3058,2021,1379,2553,988,29381,29496,29460,29482,5809,2126,1291,1265,2104,10041,1586,15890,11816,3186,1318,1375,3027,17828,29320,1409552000,26,67,977,13692,397,64995,56563,0,1,3,0
Wait,26:25.2,29241,29447,2737,5308,1999,3533,6336,1173,3049,2030,1379,2553,1001,29395,29430,29456,29425,5853,2113,1309,1318,2100,10054,1582,15758,11597,3177,1296,1366,3014,17846,29267,1409621248,26,65,971,13692,397,64995,56563,0,1,3,0
Wait,26:25.3,29293,29395,2742,5317,1959,3559,6323,1151,3041,2034,1393,2570,1028,29438,29438,29425,29438,5822,2100,1349,1287,2083,10081,1564,15692,11597,3146,1344,1379,3049,17828,29390,1409688832,24,68,974,13692,397,64995,56563,0,1,3,0
Wait,26:25.4,29438,29416,2790,5348,2008,3541,6363,1160,3014,2021,1384,2562,1032,29469,29452,29474,29500,5813,2126,1327,1296,2087,10045,1542,15802,11645,3186,1287,1415,3032,17828,29412,1409758080,26,68,974,13692,397,64995,56563,0,1,3,0
Wait,26:25.5,29425,29408,2772,5326,1942,3546,6336,1173,3032,2012,1388,2583,1010,29395,29474,29482,29438,5862,2109,1309,1296,2043,10041,1564,15736,11583,3164,1287,1393,3032,17815,29280,1409827712,24,67,976,13692,397,64995,56563,0,1,3,0
Wait,26:25.6,29351,29434,2772,5286,1955,3563,6376,1199,3049,2052,1366,2575,1054,29456,29482,29491,29474,5831,2109,1349,1256,2065,10067,1560,15758,11548,3146,1265,1410,3032,17819,29320,1409897728,24,69,973,13692,397,64995,56563,0,1,3,0
Wait,26:25.7,29276,29364,2812,5312,2003,3563,6350,1177,3019,2017,1397,2597,1037,29403,29438,29482,29425,5827,2140,1322,1265,2091,10028,1604,15728,11588,3159,1322,1340,3041,17793,29289,1409965568,25,68,976,13692,397,64995,56563,0,1,3,0
Wait,26:25.8,29263,29386,2790,5304,1964,3555,6341,1208,3032,2078,1362,2522,1023,29403,29430,29373,29416,5835,2096,1344,1278,2083,10050,1586,15578,11562,3181,1287,1397,3027,17815,29241,1410035072,23,67,974,13692,397,64995,56563,0,1,3,0
Wait,26:25.9,29355,29311,2825,5308,1990,3506,6380,1190,3036,2012,1353,2579,1010,29364,29443,29390,29474,5840,2118,1305,1287,2069,10081,1555,15793,11636,3164,1344,1357,3019,17767,29355,1410102784,22,66,972,13692,397,64995,56563,0,1,3,0
Wait,26:26.0,29298,29359,2759,5334,1990,3524,6372,1190,3027,2025,1406,2597,993,29438,29395,29395,29452,5818,2162,1309,1256,2126,10006,1612,16000,11707,3208,1309,1362,3036,17793,29276,1410169344,23,68,972,13692,397,64995,56563,0,1,3,0
Wait,26:26.1,29320,29364,2755,5304,1977,3546,6358,1146,3058,2034,1415,2588,1037,29421,29434,29469,29447,5840,2118,1318,1287,2104,10032,1590,15908,11843,3199,1322,1393,3032,17815,29289,1410236288,24,66,974,13692,397,64995,56563,0,1,3,0
Wait,26:26.2,29188,29329,2755,5295,1990,3572,6367,1195,3032,2008,1401,2562,1019,29412,29452,29438,29447,5866,2122,1265,1278,2087,10037,1555,16031,11790,3168,1335,1393,3036,17802,29276,1410302976,24,66,975,13692,397,64995,56563,0,1,3,0
Wait,26:26.3,29285,29368,2768,5295,1977,3559,6345,1190,3010,2047,1335,2562,1006,29373,29482,29443,29465,5813,2113,1313,1265,2113,10032,1582,16018,11917,3155,1305,1366,3023,17753,29315,1410370688,24,67,972,13692,397,64995,56563,0,1,3,0
Wait,26:26.4,29329,29355,2781,5321,1959,3568,6358,1142,3027,2061,1388,2548,1019,29408,29447,29430,29491,5857,2131,1349,1300,2087,10037,1590,15886,11729,3186,1309,1357,3036,17811,29324,1410439680,25,69,975,13692,397,64995,56563,0,1,3,0
Wait,26:26.5,29302,29355,2755,5273,1933,3546,6341,1173,3076,2100,1388,2570,1023,29408,29438,29491,29452,5813,2126,1265,1287,2113,10023,1586,15934,11865,3177,1291,1357,3014,17775,29258,1410508416,28,67,975,13692,397,64995,56563,0,1,3,0
Wait,26:26.6,29267,29386,2755,5304,1995,3524,6394,1186,3036,2052,1379,2579,1028,29421,29390,29390,29460,5822,2087,1331,1300,2069,10050,1568,16149,11997,3186,1309,1415,3041,17771,29241,1410577280,24,67,974,13692,397,64995,56563,0,1,3,0
Wait,26:26.7,29342,29329,2759,5326,1977,3555,6336,1182,3032,2021,1419,2583,984,29381,29430,29452,29478,5835,2140,1322,1300,2087,10045,1595,16294,12142,3159,1322,1419,3023,17775,29289,1410644608,25,68,976,13692,397,64995,56563,0,1,3,0
Wait,26:26.8,29307,29368,2755,5299,2003,3555,6336,1160,3027,2069,1375,2570,997,29408,29438,29469,29421,5844,2096,1327,1261,2087,10028,1586,16294,12137,3186,1335,1388,3014,17745,29311,1410712832,23,65,977,13692,397,64995,56563,0,1,3,0
Wait,26:26.9,29298,29351,2772,5312,1977,3541,6394,1199,3027,2003,1388,2592,1037,29364,29452,29500,29399,5813,2126,1309,1287,2091,10023,1555,16330,12080,3199,1309,1375,3036,17780,29346,1410781056,22,65,975,13692,397,64995,56563,0,1,3,0
Wait,26:27.0,29315,29320,2755,5286,1986,3506,6354,1182,3041,2047,1357,2575,1028,29390,29434,29482,29452,5831,2109,1318,1287,2096,10063,1577,16554,12304,3172,1327,1366,3058,17780,29355,1410849536,23,66,974,13692,397,64995,56563,0,1,3,0
Wait,26:27.1,29241,29324,2737,5299,1995,3572,6376,1177,3041,2034,1388,2557,1037,29443,29456,29443,29491,5831,2113,1300,1252,2104,10059,1546,16435,12278,3186,1274,1362,3049,17824,29254,1410917376,23,67,974,13692,397,64995,56563,0,1,3,0
Wait,26:27.2,29412,29364,2777,5321,2008,3577,6367,1182,3032,2034,1375,2632,1006,29447,29487,29513,29456,5809,2091,1313,1278,2069,10050,1560,16571,12278,3150,1318,1366,3023,17775,29346,1410985600,25,67,976,13692,397,64995,56563,0,1,3,0
Wait,26:27.3,29351,29337,2777,5308,1964,3541,6350,1190,3093,2065,1401,2597,1032,29390,29438,29368,29434,5818,2140,1291,1252,2096,10054,1538,16558,12436,3164,1305,1406,3005,17780,29324,1411053824,26,66,975,13692,397,64995,56563,0,1,3,0
Wait,26:27.4,29289,29434,2733,5356,1995,3563,6345,1177,3045,2025,1406,2579,988,29469,29456,29491,29500,5805,2126,1366,1274,2100,10045,1542,16690,12476,3150,1305,1406,3054,17828,29302,1411123584,25,69,974,13692,397,64995,56563,0,1,3,0
Wait,26:27.5,29320,29355,2746,5339,2012,3563,6385,1151,3049,2012,1379,2535,1041,29438,29460,29399,29434,5827,2144,1309,1265,2083,10063,1590,16545,12462,3199,1313,1415,3023,17806,29267,1411192832,24,65,973,13692,397,64995,56563,0,1,3,0
Wait,26:27.6,29324,29364,2764,5295,1959,3585,6376,1151,3010,2039,1415,2557,1015,29434,29425,29460,29465,5862,2100,1344,1274,2104,10023,1573,16589,12405,3208,1296,1384,3058,17780,29355,1411260160,24,64,976,13692,397,64995,56563,0,1,3,0
Wait,26:27.7,29289,29434,2759,5330,1959,3572,6367,1151,3032,2039,1379,2562,1019,29434,29434,29443,29416,5840,2104,1300,1283,2113,10037,1520,16624,12427,3181,1296,1375,2961,17802,29324,1411329024,24,67,973,13692,397,64995,56563,0,1,3,0
Wait,26:27.8,29329,29377,2768,5291,1999,3581,6367,1168,3067,2025,1415,2548,1023,29430,29478,29421,29452,5818,2131,1318,1291,2126,10023,1590,16514,12379,3137,1305,1397,3032,17767,29258,1411395584,26,70,974,13692,397,64995,56563,0,1,3,0
Wait,26:27.9,29250,29359,2746,5264,1959,3533,6332,1212,3045,2052,1371,2557,1019,29395,29465,29460,29474,5835,2109,1318,1296,2118,10045,1560,16703,12533,3172,1305,1393,3019,17802,29329,1411463424,26,64,972,13692,397,64995,56563,0,1,3,0
Wait,26:28.0,29368,29346,2759,5312,1977,3555,6363,1155,3045,2056,1357,2583,1041,29390,29430,29487,29465,5822,2122,1327,1274,2069,10041,1586,16620,12493,3168,1305,1397,3045,17780,29276,1411530880,24,67,972,13692,397,64995,56563,0,1,3,0
Wait,26:28.1,29395,29399,2777,5299,2003,3555,6297,1155,3027,2021,1371,2570,1006,29447,29443,29487,29491,5818,2109,1313,1278,2087,10019,1577,16747,12708,3128,1318,1362,3054,17736,29390,1411598976,26,71,974,13692,397,64995,56563,0,1,3,0
Wait,26:28.2,29390,29425,2755,5330,1986,3528,6363,1186,3067,2069,1393,2562,1006,29342,29315,29447,29531,5862,2131,1349,1274,2078,10032,1599,16703,12498,3172,1305,1393,3032,17775,29425,1411667072,25,69,973,13692,397,64995,56563,0,1,3,0
Wait,26:28.3,29395,29342,2772,5291,1973,3563,6328,1168,3045,2012,1366,2570,1045,29403,29456,29487,29496,5822,2109,1296,1283,2104,10010,1564,16668,12445,3177,1300,1384,3049,17749,29377,1411733760,26,66,970,13692,397,64995,56563,0,1,3,0
Wait,26:28.4,29359,29364,2786,5308,1959,3546,6363,1199,3036,2039,1344,2579,1015,29421,29421,29491,29469,5813,2122,1313,1287,2074,10001,1590,16694,12506,3181,1322,1379,3058,17749,29333,1411801088,26,67,972,13692,397,64995,56563,0,1,3,0
Wait,26:28.5,29223,29408,2759,5295,1981,3555,6363,1168,3027,2056,1379,2540,984,29412,29465,29548,29518,5800,2087,1331,1278,2061,10045,1577,16650,12445,3146,1283,1357,3014,17797,29373,1411869568,24,67,973,13692,397,64995,56563,0,1,3,0
Wait,26:28.6,29373,29342,2759,5277,1977,3550,6345,1182,3076,2017,1353,2553,1015,29386,29465,29469,29478,5840,2087,1296,1278,2109,10028,1590,16883,12559,3120,1300,1375,3032,17749,29302,1411936640,22,66,973,13692,397,64995,56563,0,1,3,0
Wait,26:28.7,29342,29408,2742,5277,1959,3506,6363,1138,3036,2003,1357,2544,1001,29403,29456,29487,29474,5835,2104,1313,1261,2096,10041,1573,16598,12489,3177,1283,1375,3023,17797,29434,1412005504,26,68,974,13692,397,64995,56563,0,1,3,0
Wait,26:28.8,29355,29346,2742,5308,1990,3577,6350,1199,3054,2043,1397,2566,1010,29395,29386,29416,29399,5849,2126,1300,1287,2091,10019,1577,16444,12287,3142,1340,1384,3045,17745,29337,1412072064,25,70,972,13692,397,64995,56563,0,1,3,0
Wait,26:28.9,29430,29368,2733,5304,1959,3559,6332,1168,3027,2003,1371,2540,1023,29421,29452,29500,29434,5844,2096,1283,1300,2061,10072,1546,16549,12414,3190,1300,1384,3036,17780,29359,1412139776,22,65,973,13692,397,64995,56563,0,1,3,0
Wait,26:29.0,29271,29320,2772,5317,1973,3537,6394,1160,3093,2039,1406,2575,984,29421,29452,29478,29456,5827,2126,1305,1283,2074,10050,1568,16712,12506,3146,1305,1375,3019,17797,29232,1412207872,26,64,973,13692,397,64995,56563,0,1,3,0
Wait,26:29.1,29254,29333,2786,5312,1946,3555,6328,1168,3019,2034,1393,2619,1028,29434,29452,29562,29509,5818,2144,1344,1243,2078,10015,1546,16628,12379,3133,1291,1384,3045,17771,29346,1412276736,24,69,976,13692,397,64995,56563,0,1,3,0
Wait,26:29.2,29403,29381,2781,5312,1946,3559,6345,1199,3014,2047,1410,2548,1001,29395,29460,29500,29491,5822,2170,1322,1291,2096,10050,1568,16492,12251,3146,1296,1366,3027,17780,29364,1412345856,24,66,974,13692,397,64995,56563,0,1,3,0
Wait,26:29.3,29412,29311,2768,5304,1977,3537,6354,1151,3058,2052,1388,2592,1006,29430,29491,29509,29548,5818,2087,1349,1309,2056,10045,1568,16404,12247,3128,1283,1388,3041,17731,29359,1412413184,25,65,972,13692,397,64995,56563,0,1,3,0
Wait,26:29.4,29315,29346,2772,5312,1973,3577,6319,1195,3076,2074,1384,2605,1010,29438,29460,29487,29491,5840,2122,1309,1296,2100,10067,1555,16593,12388,3199,1340,1423,3019,17771,29390,1412482944,22,68,974,13692,397,64995,56563,0,1,3,0
Wait,26:29.5,29276,29377,2768,5291,1955,3563,6310,1204,3071,2012,1366,2548,1032,29395,29456,29509,29518,5857,2135,1291,1305,2122,10015,1573,16628,12502,3168,1318,1415,2979,17762,29373,1412551168,22,67,973,13692,397,64995,56563,0,1,3,0
Wait,26:29.6,29346,29346,2755,5304,1986,3577,6358,1146,3023,2061,1401,2570,966,29425,29447,29491,29535,5827,2104,1300,1283,2100,10059,1573,16954,12849,3172,1278,1388,3023,17775,29425,1412619008,25,67,972,13692,397,64995,56563,0,1,3,0
Wait,26:29.7,29289,29346,2755,5365,2030,3541,6345,1177,3045,2078,1379,2522,1032,29430,29443,29513,29522,5857,2083,1305,1309,2113,10045,1586,16782,12726,3137,1291,1362,3001,17745,29293,1412686720,25,66,975,13692,397,64995,56563,0,1,3,0
Wait,26:29.8,29386,29408,2794,5343,1977,3563,6363,1195,3023,2039,1419,2583,984,29430,29522,29513,29509,5849,2096,1344,1261,2087,10054,1586,17072,12722,3190,1313,1357,3054,17797,29399,1412754176,22,68,974,13692,397,64995,56563,0,1,3,0
Wait,26:29.9,29395,29377,2812,5321,1981,3524,6380,1195,3036,2003,1384,2553,1041,29333,29346,29496,29500,5862,2104,1318,1300,2118,10050,1582,16870,12634,3146,1309,1437,3045,17775,29460,1412822272,24,65,971,13692,397,64995,56563,0,1,3,0
Gesture 2,26:30.0,29307,29337,2790,5299,1977,3506,6354,1182,3062,2034,1366,2579,1001,29447,29531,29531,29531,5783,2135,1278,1270,2140,10063,1560,16901,12700,3159,1318,1357,3058,17749,29276,1412889216,25,64,972,13692,397,64995,56563,0,1,3,0
Gesture 2,26:30.1,29399,29395,2794,5317,1942,3537,6332,1164,3027,2034,1406,2570,1032,29469,29399,29438,29460,5809,2122,1331,1287,2113,10037,1564,16962,12735,3172,1305,1375,3001,17771,29373,1412960000,24,68,975,13692,397,64995,56563,0,1,3,0
Gesture 2,26:30.2,29359,29368,2786,5312,1959,3563,6336,1160,3005,2061,1375,2562,975,29487,29460,29557,29469,5840,2109,1283,1300,2074,10015,1568,16914,12823,3146,1322,1375,3045,17718,29342,1413027968,24,67,975,13692,397,64995,56563,0,1,3,0
Gesture 2,26:30.3,29434,29337,2737,5304,1959,3537,6367,1177,3027,2039,1357,2588,1010,29377,29447,29526,29456,5831,2113,1331,1278,2100,10037,1586,17068,12858,3093,1287,1388,3032,17771,29377,1413096832,25,67,974,13692,397,64995,56563,0,1,3,0
Gesture 2,26:30.4,29438,29403,2755,5286,1995,3581,6358,1204,3014,2069,1344,2540,984,29482,29438,29482,29535,5835,2131,1331,1287,2104,10059,1546,16914,12814,3146,1322,1362,3062,17780,29355,1413163136,25,66,974,13692,397,64995,56563,0,1,3,0
Gesture 2,26:30.5,29421,29395,2750,5321,1977,3546,6354,1151,3014,2043,1388,2579,1001,29425,29474,29504,29500,5822,2096,1300,1265,2061,10045,1582,16936,12704,3133,1291,1388,3036,17736,29302,1413231360,23,70,974,13692,397,64995,56563,0,1,3,0
Gesture 2,26:30.6,29390,29390,2772,5304,1977,3550,6350,1173,3023,2003,1371,2575,1019,29434,29452,29500,29452,5796,2126,1305,1270,2083,10010,1568,16927,12687,3159,1327,1384,3001,17784,29364,1413300352,23,65,972,13692,397,64995,56563,0,1,3,0
Gesture 2,26:30.7,29434,29403,2777,5330,1999,3577,6319,1190,3032,2017,1375,2544,993,29447,29465,29500,29504,5822,2109,1305,1283,2100,10050,1551,17011,12827,3172,1283,1375,3054,17793,29276,1413367040,26,64,974,13692,397,64995,56563,0,1,3,0
Gesture 2,26:30.8,29258,29395,2764,5286,1986,3550,6328,1173,3062,2025,1357,2579,1019,29434,29408,29518,29482,5844,2122,1322,1278,2091,10015,1590,16993,12827,3194,1313,1397,3019,17784,29390,1413435392,24,68,973,13692,397,64995,56563,0,1,3,0
Gesture 2,26:30.9,29315,29346,2790,5282,1955,3568,6358,1195,3032,2039,1362,2557,1037,29452,29460,29504,29535,5818,2118,1318,1252,2118,10059,1555,16945,12818,3137,1309,1397,3014,17740,29425,1413502336,24,66,973,13692,397,64995,56563,0,1,3,0
Gesture 2,26:31.0,29280,29333,2759,5295,1995,3568,6363,1177,3023,2061,1388,2583,1010,29403,29447,29447,29496,5791,2144,1318,1261,2087,10037,1560,16949,12862,3146,1283,1397,3058,17753,29377,1413569792,26,68,973,13692,397,64995,56563,0,1,3,0
Gesture 2,26:31.1,29355,29342,2781,5339,2008,3568,6372,1204,3045,2012,1362,2553,1001,29443,29460,29500,29491,5849,2087,1287,1296,2109,10054,1586,16914,12779,3164,1309,1384,3032,17731,29438,1413636992,24,68,974,13692,397,64995,56563,0,1,3,0
Gesture 2,26:31.2,29258,29337,2755,5295,1955,3550,6350,1177,3067,2047,1419,2579,1001,29478,29421,29469,29474,5822,2109,1335,1305,2091,10010,1551,17011,12810,3172,1313,1397,3027,17709,29219,1413703552,25,68,975,13692,397,64995,56563,0,1,3,0
Gesture 2,26:31.3,29263,29359,2764,5295,1995,3555,6319,1177,3067,2021,1401,2531,1006,29474,29452,29425,29434,5809,2100,1313,1278,2100,10032,1573,16998,12906,3199,1322,1384,3049,17811,29298,1413770112,23,66,972,13692,397,64995,56563,0,1,3,0
Gesture 2,26:31.4,29364,29390,2759,5321,1968,3577,6363,1212,2983,2025,1401,2579,1006,29478,29447,29456,29482,5818,2122,1313,1270,2104,10001,1577,16875,12726,3159,1265,1366,3010,17797,29395,1413840000,24,67,973,13692,397,64995,56563,0,1,3,0
Gesture 2,26:31.5,29298,29412,2764,5312,1942,3520,6336,1142,3019,2061,1401,2575,1010,29460,29447,29500,29531,5813,2091,1335,1265,2069,10050,1568,17024,12854,3168,1318,1375,3019,17740,29254,1413909120,25,68,975,13692,397,64995,56563,0,1,3,0
Gesture 2,26:31.6,29307,29500,2794,5308,2034,3559,6319,1195,3093,2056,1384,2548,1023,29447,29469,29487,29557,5800,2113,1291,1274,2100,10067,1568,16967,12836,3177,1309,1375,2997,17753,29386,1413977088,25,67,976,13692,397,64995,56563,0,1,3,0
Gesture 2,26:31.7,29381,29373,2742,5326,1955,3541,6380,1182,3010,2017,1384,2583,1006,29456,29452,29496,29540,5840,2144,1340,1287,2087,10041,1564,16809,12722,3172,1322,1384,3032,17753,29351,1414044672,23,66,975,13692,397,64995,56563,0,1,3,0
Gesture 2,26:31.8,29416,29421,2777,5286,1942,3533,6310,1173,3010,2083,1393,2535,1015,29425,29526,29526,29487,5818,2131,1318,1283,2083,10028,1604,16914,12687,3168,1309,1415,3023,17784,29421,1414113152,25,67,972,13692,397,64995,56563,0,1,3,0
Gesture 2,26:31.9,29298,29381,2759,5304,1990,3541,6385,1182,3032,2047,1388,2592,1019,29465,29460,29482,29491,5796,2113,1305,1291,2083,10032,1577,17103,12832,3164,1274,1379,3023,17753,29333,1414180608,25,67,972,13692,397,64995,56563,0,1,3,0
Gesture 2,26:32.0,29496,29487,2772,5277,1981,3537,6389,1155,3036,2039,1393,2570,1006,29443,29359,29540,29504,5866,2144,1296,1274,2087,10054,1560,16918,12717,3164,1327,1393,3010,17762,29509,1414248576,23,65,973,13692,397,64995,56563,0,1,3,0
Gesture 2,26:32.1,29364,29351,2750,5299,1981,3546,6372,1155,3049,2025,1371,2583,988,29456,29443,29496,29465,5818,2083,1327,1300,2056,10045,1582,16962,12871,3181,1296,1401,2983,17736,29364,1414314752,26,68,972,13692,397,64995,56563,0,1,3,0
Gesture 2,26:32.2,29293,29408,2790,5308,1999,3524,6350,1217,3045,2043,1397,2610,1010,29469,29491,29548,29566,5862,2122,1283,1322,2109,9997,1573,16888,12792,3155,1291,1388,3014,17797,29386,1414383744,27,67,972,13692,397,64995,56563,0,1,3,0
Gesture 2,26:32.3,29373,29298,2755,5321,1959,3555,6350,1186,3058,2065,1375,2605,1050,29438,29430,29491,29487,5805,2109,1318,1252,2074,9997,1564,16945,12871,3155,1270,1366,2988,17714,29381,1414451328,25,66,972,13692,397,64995,56563,0,1,3,0
Gesture 2,26:32.4,29482,29438,2786,5286,2012,3533,6336,1212,3023,2039,1379,2575,1041,29390,29403,29443,29469,5805,2140,1335,1274,2100,10059,1577,16932,12748,3155,1300,1362,3010,17775,29460,1414519680,25,66,975,13692,397,64995,56563,0,1,3,0
Gesture 2,26:32.5,29456,29482,2746,5321,1986,3546,6398,1182,3041,2039,1388,2583,997,29359,29285,29482,29438,5827,2113,1318,1270,2104,10023,1564,16905,12761,3181,1318,1379,3005,17767,29491,1414585344,25,69,975,13692,397,64995,56563,0,1,3,0
Gesture 2,26:32.6,29245,29329,2777,5282,1973,3498,6376,1239,3019,2047,1410,2575,1041,29465,29452,29491,29443,5831,2131,1340,1305,2104,9988,1582,17046,12695,3181,1296,1384,3027,17731,29223,1414650112,25,66,972,13692,397,64995,56563,0,1,3,0
Gesture 2,26:32.7,29368,29377,2786,5330,1977,3559,6332,1182,3019,2043,1415,2553,1023,29469,29482,29518,29482,5796,2118,1296,1278,2104,10028,1586,16782,12722,3150,1300,1375,3027,17745,29298,1414716032,25,66,973,13692,397,64995,56563,0,1,3,0
Gesture 2,26:32.8,29333,29381,2764,5326,1964,3599,6350,1182,3071,2034,1428,2583,1001,29491,29469,29482,29478,5813,2104,1291,1291,2091,10019,1577,16861,12774,3137,1309,1393,3036,17718,29285,1414783744,24,69,974,13692,397,64995,56563,0,1,3,0
Gesture 2,26:32.9,29293,29355,2781,5330,1968,3506,6380,1186,2997,2008,1384,2583,979,29452,29469,29544,29504,5800,2109,1318,1278,2074,10023,1564,16835,12730,3186,1283,1353,3010,17767,29329,1414850816,24,68,973,13692,397,64995,56563,0,1,3,0
Gesture 2,26:33.0,29307,29386,2750,5343,1977,3546,6345,1186,3019,2030,1357,2570,997,29460,29500,29452,29500,5809,2096,1322,1318,2100,10045,1568,16954,12704,3120,1305,1406,3036,17749,29351,1414919552,23,67,973,13692,397,64995,56563,0,1,3,0
Gesture 2,26:33.1,29395,29395,2777,5295,2003,3550,6398,1182,3036,2052,1384,2592,1050,29500,29509,29535,29544,5791,2122,1340,1278,2109,10028,1577,16822,12779,3203,1305,1410,3032,17731,29381,1414985984,25,66,974,13692,397,64995,56563,0,1,3,0
Gesture 2,26:33.2,29412,29408,2755,5348,1995,3546,6398,1164,3041,2047,1388,2619,984,29452,29447,29496,29447,5831,2113,1327,1278,2087,10032,1582,16962,12836,3159,1309,1397,3036,17709,29351,1415055232,26,67,972,13692,397,64995,56563,0,1,3,0
Gesture 2,26:33.3,29276,29359,2759,5339,1968,3528,6332,1142,3080,2061,1384,2583,988,29487,29460,29566,29531,5844,2131,1318,1248,2047,10041,1551,16879,12691,3150,1296,1393,3010,17753,29263,1415121920,22,66,972,13692,397,64995,56563,0,1,3,0
Gesture 2,26:33.4,29368,29373,2755,5330,1990,3550,6363,1186,3027,2030,1379,2597,1032,29452,29478,29474,29548,5822,2104,1318,1287,2083,10050,1590,16848,12691,3186,1305,1344,3023,17758,29386,1415189120,25,66,972,13692,397,64995,56563,0,1,3,0
Gesture 2,26:33.5,29412,29425,2729,5317,1973,3555,6310,1208,3041,2021,1375,2583,1006,29500,29504,29504,29531,5835,2100,1305,1270,2118,10059,1573,16800,12805,3146,1322,1388,3049,17758,29395,1415256704,24,68,974,13692,397,64995,56563,0,1,3,0
Gesture 2,26:33.6,29430,29315,2742,5291,1942,3546,6336,1226,3036,2056,1357,2544,1001,29425,29425,29474,29509,5818,2109,1322,1256,2118,9997,1595,16795,12735,3146,1248,1357,3005,17745,29329,1415324032,25,65,973,13692,397,64995,56563,0,1,3,0
Gesture 2,26:33.7,29346,29320,2742,5295,1981,3559,6367,1208,3041,2017,1340,2570,1019,29496,29509,29482,29548,5831,2118,1344,1305,2083,10023,1564,16932,12788,3190,1318,1406,3023,17740,29399,1415390848,23,64,973,13692,397,64995,56563,0,1,3,0
Gesture 2,26:33.8,29399,29386,2724,5304,1955,3537,6350,1155,3036,2061,1397,2588,1032,29509,29500,29544,29513,5862,2122,1322,1283,2104,10041,1577,16971,12805,3168,1287,1397,3058,17789,29430,1415458560,24,67,975,13692,397,64995,56563,0,1,3,0
Gesture 2,26:33.9,29307,29399,2764,5308,2003,3546,6341,1186,3041,2043,1423,2548,997,29469,29443,29500,29562,5844,2113,1305,1278,2091,10032,1595,16875,12845,3216,1322,1371,3027,17731,29320,1415526016,24,66,974,13692,397,64995,56563,0,1,3,0
Gesture 2,26:34.0,29460,29430,2750,5334,1990,3572,6358,1212,3041,2047,1362,2601,1015,29447,29298,29548,29513,5844,2135,1313,1256,2096,10019,1590,16980,12818,3216,1296,1375,3019,17731,29531,1415593600,23,66,972,13692,397,64995,56563,0,1,3,0
Gesture 2,26:34.1,29329,29390,2781,5286,1990,3520,6310,1186,3054,2025,1366,2597,1023,29478,29474,29518,29469,5840,2113,1296,1256,2118,10032,1604,16958,12722,3164,1291,1384,3049,17740,29408,1415659520,22,69,976,13692,397,64995,56563,0,1,3,0
Gesture 2,26:34.2,29390,29377,2764,5330,1964,3541,6398,1155,3014,2025,1349,2557,1023,29513,29460,29518,29531,5831,2157,1331,1278,2122,10059,1560,16958,12788,3155,1305,1406,2992,17789,29395,1415727104,26,69,972,13692,397,64995,56563,0,1,3,0
Gesture 2,26:34.3,29315,29377,2759,5308,1995,3511,6345,1142,3027,2056,1379,2544,997,29408,29469,29513,29474,5796,2140,1313,1287,2096,10019,1573,16817,12744,3168,1296,1388,3032,17753,29408,1415793792,26,65,972,13692,397,64995,56563,0,1,3,0
Gesture 2,26:34.4,29289,29421,2803,5295,1977,3555,6328,1195,3023,2030,1375,2540,962,29544,29465,29579,29487,5818,2122,1274,1291,2083,10037,1577,16962,12858,3186,1270,1353,3027,17797,29342,1415863680,24,64,975,13692,397,64995,56563,0,1,3,0
Gesture 2,26:34.5,29373,29368,2781,5304,1937,3533,6332,1195,3027,2017,1353,2570,993,29482,29430,29526,29478,5835,2096,1327,1270,2109,10015,1568,17024,12810,3155,1252,1388,3027,17749,29412,1415931392,24,68,974,13692,397,64995,56563,0,1,3,0
Gesture 2,26:34.6,29399,29403,2794,5299,1990,3550,6332,1195,3032,2012,1371,2601,997,29478,29540,29535,29535,5831,2104,1300,1278,2047,9984,1568,16949,12713,3137,1265,1371,3005,17771,29403,1415998592,23,66,974,13692,397,64995,56563,0,1,3,0
Gesture 2,26:34.7,29395,29359,2777,5330,1964,3550,6345,1195,3036,2030,1375,2562,1037,29456,29443,29500,29456,5787,2109,1340,1291,2096,10023,1599,16901,12792,3168,1313,1388,2988,17758,29434,1416065792,24,64,975,13692,397,64995,56563,0,1,3,0
Gesture 2,26:34.8,29368,29465,2733,5312,1942,3541,6354,1186,3058,2039,1375,2583,988,29469,29526,29583,29566,5831,2131,1296,1300,2113,10028,1551,16809,12752,3159,1335,1379,3001,17784,29386,1416135168,26,67,974,13692,397,64995,56563,0,1,3,0
Gesture 2,26:34.9,29386,29390,2764,5339,1977,3546,6354,1177,3010,2039,1423,2583,1010,29478,29513,29548,29500,5849,2104,1335,1278,2104,10023,1560,16817,12695,3159,1296,1388,3032,17758,29434,1416202624,25,68,975,13692,397,64995,56563,0,1,3,0
Gesture 2,26:35.0,29416,29443,2790,5330,1990,3555,6372,1160,3005,2021,1410,2575,984,29500,29452,29513,29540,5827,2118,1313,1296,2096,10041,1577,16875,12678,3142,1322,1379,3019,17736,29403,1416269568,23,66,973,13692,397,64995,56563,0,1,3,0
Gesture 2,26:35.1,29474,29390,2750,5308,1951,3546,6363,1182,3023,2030,1393,2588,1010,29460,29531,29500,29487,5796,2078,1340,1309,2100,10072,1551,16945,12818,3168,1278,1393,3041,17762,29522,1416337664,23,66,975,13692,397,64995,56563,0,1,3,0
Gesture 2,26:35.2,29307,29355,2772,5312,1981,3568,6341,1221,3041,2039,1384,2570,997,29460,29500,29540,29509,5835,2113,1305,1278,2100,10010,1590,17121,12875,3194,1291,1331,2988,17767,29315,1416405248,24,68,973,13692,397,64995,56563,0,1,3,0
Gesture 2,26:35.3,29355,29496,2750,5291,1955,3537,6350,1177,3032,2017,1349,2583,1015,29531,29487,29544,29504,5857,2135,1349,1296,2091,10076,1595,16765,12739,3150,1313,1388,3001,17767,29324,1416474368,25,69,977,13692,397,64995,56563,0,1,3,0
Gesture 2,26:35.4,29355,29403,2750,5295,1959,3541,6354,1230,3032,2056,1362,2566,1015,29460,29460,29504,29526,5818,2113,1300,1278,2087,10010,1551,16932,12647,3137,1291,1384,3023,17771,29381,1416543488,23,66,972,13692,397,64995,56563,0,1,3,0
Gesture 2,26:35.5,29504,29456,2772,5308,1973,3563,6385,1182,3036,2030,1366,2570,975,29496,29504,29504,29504,5857,2091,1318,1265,2126,10015,1564,16914,12814,3142,1305,1349,3027,17771,29390,1416610944,24,67,975,13692,397,64995,56563,0,1,3,0
Gesture 2,26:35.6,29447,29377,2755,5334,1955,3555,6358,1182,3062,2021,1388,2588,997,29544,29469,29460,29518,5809,2122,1305,1243,2113,10019,1560,17002,12827,3164,1322,1366,3054,17723,29430,1416677888,23,69,971,13692,397,64995,56563,0,1,3,0
Gesture 2,26:35.7,29474,29390,2729,5317,1964,3502,6376,1195,3005,2030,1357,2557,975,29438,29540,29500,29496,5866,2122,1331,1278,2109,9997,1555,17011,12687,3142,1322,1384,2992,17740,29491,1416744448,25,64,972,13692,397,64995,56563,0,1,3,0
Gesture 2,26:35.8,29443,29346,2733,5304,1995,3524,6380,1234,3023,2039,1366,2566,1006,29474,29416,29496,29482,5813,2113,1335,1300,2074,10032,1564,16875,12708,3150,1274,1366,3041,17745,29438,1416812160,24,68,975,13692,397,64995,56563,0,1,3,0
Gesture 2,26:35.9,29337,29399,2768,5348,1959,3555,6336,1199,3023,2056,1397,2579,1006,29496,29465,29544,29553,5809,2113,1335,1291,2069,10037,1573,17050,12955,3155,1291,1366,3010,17745,29438,1416881408,24,67,973,13692,397,64995,56563,0,1,3,0
Gesture 2,26:36.0,29403,29359,2772,5299,1981,3550,6380,1155,3032,2030,1384,2570,1015,29447,29460,29487,29509,5866,2065,1296,1278,2109,10028,1586,17072,12911,3150,1305,1393,3027,17745,29491,1416948224,26,67,975,13692,397,64995,56563,0,1,3,0
Gesture 2,26:36.1,29399,29416,2786,5326,1986,3541,6319,1177,3062,2034,1401,2562,988,29496,29504,29513,29540,5835,2113,1313,1248,2113,10032,1586,17182,12977,3164,1278,1384,3023,17775,29434,1417017600,24,67,976,13692,397,64995,56563,0,1,3,0
Gesture 2,26:36.2,29399,29381,2750,5330,1973,3533,6328,1177,3023,2025,1384,2553,984,29482,29460,29504,29487,5849,2113,1313,1248,2109,10050,1590,17173,12990,3150,1278,1375,3049,17701,29408,1417085312,25,68,973,13692,397,64995,56563,0,1,3,0
Gesture 2,26:36.3,29421,29377,2759,5365,1959,3541,6332,1208,3023,2047,1401,2557,993,29460,29469,29522,29482,5809,2140,1313,1270,2078,10059,1582,17428,13205,3146,1344,1375,3036,17762,29434,1417154560,25,68,973,13692,397,64995,56563,0,1,3,0
Gesture 2,26:36.4,29487,29403,2772,5317,1959,3524,6336,1168,3041,2043,1340,2566,1019,29412,29452,29456,29474,5835,2122,1305,1300,2109,10098,1555,17340,13148,3172,1291,1349,3054,17718,29465,1417222400,24,63,975,13692,397,64995,56563,0,1,3,0
Gesture 2,26:36.5,29399,29416,2812,5312,1955,3577,6367,1155,3049,2025,1423,2562,1032,29504,29456,29531,29496,5800,2078,1335,1291,2091,10028,1568,17397,13337,3159,1296,1357,3014,17771,29408,1417288320,24,66,975,13692,397,64995,56563,0,1,3,0
Gesture 2,26:36.6,29399,29395,2742,5343,1955,3528,6358,1164,3045,2039,1415,2575,1006,29456,29474,29518,29531,5774,2091,1283,1239,2087,10037,1586,17318,13271,3146,1300,1375,3032,17740,29416,1417354880,27,68,974,13692,397,64995,56563,0,1,3,0
Gesture 2,26:36.7,29430,29408,2755,5321,1995,3511,6376,1195,3005,2047,1362,2579,1023,29447,29421,29474,29416,5844,2118,1331,1283,2096,10023,1595,17406,13240,3186,1313,1371,3027,17745,29430,1417421952,22,64,973,13692,397,64995,56563,0,1,3,0
Gesture 2,26:36.8,29412,29386,2742,5312,1977,3559,6354,1177,3062,2065,1393,2557,1072,29465,29487,29509,29500,5822,2100,1296,1313,2091,10001,1599,17310,13192,3155,1291,1375,3014,17740,29421,1417488768,24,65,973,13692,397,64995,56563,0,1,3,0
Gesture 2,26:36.9,29434,29452,2755,5317,1977,3520,6363,1186,3054,2025,1384,2540,997,29390,29487,29496,29513,5840,2109,1318,1318,2096,10067,1573,17389,13152,3120,1313,1366,3023,17762,29478,1417558528,24,67,975,13692,397,64995,56563,0,1,3,0
Gesture 2,26:37.0,29399,29386,2733,5264,1933,3506,6367,1182,3032,2065,1366,2597,1015,29562,29491,29487,29504,5853,2135,1322,1309,2083,10094,1577,17332,13091,3172,1309,1397,3041,17727,29390,1417627776,24,69,972,13692,397,64995,56563,0,1,3,0
Gesture 2,26:37.1,29368,29456,2759,5299,1990,3568,6407,1186,3045,2039,1419,2562,1001,29474,29496,29522,29540,5813,2096,1309,1239,2091,10015,1568,17375,13258,3177,1331,1335,3027,17727,29456,1417697024,25,65,975,13692,397,64995,56563,0,1,3,0
Gesture 2,26:37.2,29381,29368,2772,5312,1929,3533,6336,1168,3045,2025,1366,2579,993,29452,29447,29500,29531,5835,2113,1327,1278,2065,10032,1533,17354,13280,3190,1322,1388,3019,17753,29386,1417766016,24,67,973,13692,397,64995,56563,0,1,3,0
Gesture 2,26:37.3,29416,29412,2781,5326,1964,3528,6354,1160,3041,2074,1366,2575,1023,29496,29518,29513,29482,5831,2148,1331,1327,2069,10076,1533,17455,13258,3159,1309,1366,3032,17745,29390,1417835904,26,69,974,13692,397,64995,56563,0,1,3,0
Gesture 2,26:37.4,29373,29381,2808,5312,1995,3537,6372,1186,3049,2052,1375,2553,1041,29482,29430,29491,29465,5857,2074,1313,1261,2074,10050,1586,17538,13464,3164,1278,1344,3036,17771,29390,1417904512,23,64,974,13692,397,64995,56563,0,1,3,0
Gesture 2,26:37.5,29491,29333,2764,5299,1946,3577,6376,1155,3045,2043,1397,2553,975,29491,29443,29487,29469,5787,2122,1318,1305,2087,10041,1538,17477,13341,3177,1309,1397,3036,17723,29425,1417972736,25,65,974,13692,397,64995,56563,0,1,3,0
Gesture 2,26:37.6,29460,29381,2742,5326,2003,3563,6358,1160,3036,2034,1384,2562,993,29443,29399,29496,29509,5853,2122,1327,1291,2061,10015,1577,17468,13328,3142,1313,1371,3027,17753,29403,1418040320,24,68,973,13692,397,64995,56563,0,1,3,0
Gesture 2,26:37.7,29438,29359,2737,5330,1981,3541,6363,1173,3036,2039,1371,2605,979,29460,29456,29548,29531,5822,2131,1313,1300,2096,10045,1617,17415,13280,3177,1278,1410,3014,17723,29438,1418107392,24,66,975,13692,397,64995,56563,0,1,3,0
Gesture 2,26:37.8,29430,29377,2794,5321,1959,3515,6319,1186,3054,2061,1366,2601,1001,29460,29460,29500,29443,5831,2109,1322,1274,2096,10023,1533,17797,13504,3172,1305,1353,3014,17714,29399,1418175360,24,65,975,13692,397,64995,56563,0,1,3,0
Gesture 2,26:37.9,29425,29452,2755,5339,1981,3533,6367,1208,3014,2043,1393,2553,975,29456,29465,29540,29518,5862,2148,1291,1283,2118,10037,1577,17736,13658,3164,1278,1357,2992,17749,29403,1418244864,23,68,974,13692,397,64995,56563,0,1,3,0
Gesture 2,26:38.0,29403,29368,2772,5317,1964,3563,6345,1212,3010,2034,1357,2605,1019,29465,29465,29469,29522,5809,2126,1300,1261,2074,10023,1590,17644,13605,3203,1313,1371,3019,17718,29443,1418313600,23,66,973,13692,397,64995,56563,0,1,3,0
Gesture 2,26:38.1,29421,29395,2768,5299,1981,3541,6376,1173,3023,2012,1375,2575,1006,29500,29496,29518,29487,5831,2122,1287,1283,2087,10028,1538,17679,13724,3155,1270,1357,3041,17736,29416,1418381440,24,62,972,13692,397,64995,56563,0,1,3,0
Gesture 2,26:38.2,29399,29359,2746,5352,1981,3546,6345,1195,3032,2043,1335,2562,1015,29456,29487,29518,29496,5827,2083,1327,1278,2096,10015,1577,17582,13543,3168,1278,1384,3001,17723,29474,1418451328,26,66,976,13692,397,64995,56563,0,1,3,0
Gesture 2,26:38.3,29447,29390,2742,5343,1977,3520,6354,1208,3032,2012,1379,2553,1010,29491,29469,29548,29522,5809,2144,1291,1309,2091,10041,1538,17885,13759,3164,1305,1375,3027,17745,29416,1418519040,23,70,972,13692,397,64995,56563,0,1,3,0
Gesture 2,26:38.4,29403,29425,2702,5312,1977,3550,6385,1164,3010,2012,1397,2557,1032,29456,29460,29526,29553,5822,2078,1349,1261,2083,10089,1520,17872,13785,3181,1327,1401,3054,17811,29482,1418588032,25,65,971,13692,397,64995,56563,0,1,3,0
Gesture 2,26:38.5,29408,29377,2750,5317,1977,3550,6354,1190,3010,2043,1379,2562,1001,29452,29430,29531,29544,5822,2087,1344,1278,2087,9988,1538,18118,13781,3142,1300,1371,3041,17749,29434,1418655744,25,66,972,13692,397,64995,56563,0,1,3,0
Gesture 2,26:38.6,29456,29421,2790,5308,2003,3541,6358,1190,3032,2021,1371,2597,993,29500,29487,29526,29544,5827,2118,1327,1278,2061,10054,1560,18105,13842,3120,1291,1384,3089,17745,29452,1418722816,25,68,976,13692,397,64995,56563,0,1,3,0
Gesture 2,26:38.7,29430,29412,2772,5326,1973,3555,6358,1212,3032,2061,1406,2575,1006,29469,29460,29504,29504,5822,2100,1318,1283,2091,10010,1590,18118,14080,3221,1278,1388,3054,17727,29412,1418789760,25,68,974,13692,397,64995,56563,0,1,3,0
Gesture 2,26:38.8,29465,29478,2759,5326,1946,3572,6345,1182,3027,2039,1362,2579,1023,29513,29478,29531,29557,5827,2087,1335,1261,2083,10037,1568,17815,13794,3159,1283,1366,3010,17771,29452,1418858624,25,66,974,13692,397,64995,56563,0,1,3,0
Gesture 2,26:38.9,29412,29408,2729,5312,1946,3550,6354,1173,3001,2021,1384,2548,1015,29465,29447,29540,29526,5831,2126,1322,1270,2078,10063,1564,17854,13693,3177,1313,1371,3032,17745,29377,1418925824,25,70,975,13692,397,64995,56563,0,1,3,0
Gesture 2,26:39.0,29452,29337,2742,5330,1929,3524,6363,1164,3032,2012,1371,2601,1023,29487,29518,29544,29570,5831,2131,1331,1265,2096,10041,1568,17841,13680,3128,1305,1406,3014,17749,29478,1418993280,22,68,973,13692,397,64995,56563,0,1,3,0
Gesture 2,26:39.1,29412,29390,2724,5374,1959,3546,6376,1212,3027,2021,1415,2557,1006,29443,29487,29522,29496,5822,2113,1313,1283,2061,10019,1555,17731,13618,3164,1309,1349,3023,17745,29469,1419062144,26,64,972,13692,397,64995,56563,0,1,3,0
Gesture 2,26:39.2,29469,29395,2772,5326,1968,3577,6354,1182,3010,2074,1423,2570,1023,29491,29500,29535,29570,5853,2104,1335,1296,2104,10019,1542,17828,13504,3216,1287,1388,3014,17727,29452,1419131264,24,64,974,13692,397,64995,56563,0,1,3,0
Gesture 2,26:39.3,29469,29390,2733,5321,2012,3541,6385,1182,3001,2043,1379,2562,1032,29522,29474,29482,29487,5853,2126,1340,1287,2083,10032,1586,17850,13376,3181,1335,1423,2997,17718,29491,1419198208,22,70,974,13692,397,64995,56563,0,1,3,0
Gesture 2,26:39.4,29456,29416,2755,5304,1995,3559,6385,1195,3084,2021,1357,2562,971,29487,29500,29456,29535,5827,2118,1283,1318,2113,10015,1604,17767,13702,3190,1327,1375,3001,17740,29443,1419267328,25,67,972,13692,397,64995,56563,0,1,3,0
Gesture 2,26:39.5,29425,29408,2759,5334,1995,3537,6350,1173,3062,2025,1353,2610,1010,29416,29491,29548,29513,5844,2087,1313,1287,2069,10015,1560,17815,13838,3194,1313,1344,3005,17745,29482,1419334912,25,64,976,13692,397,64995,56563,0,1,3,0
Gesture 2,26:39.6,29447,29315,2768,5361,1973,3546,6380,1186,3062,2030,1401,2592,962,29487,29452,29540,29535,5857,2144,1305,1278,2113,10037,1586,18021,13697,3155,1318,1344,3027,17692,29443,1419403136,27,69,973,13692,397,64995,56563,0,1,3,0
Gesture 2,26:39.7,29421,29359,2750,5321,1973,3528,6341,1186,3027,2047,1379,2597,988,29478,29443,29553,29531,5840,2175,1318,1278,2100,10072,1612,17806,13684,3159,1287,1388,3010,17740,29421,1419472384,26,65,974,13692,397,64995,56563,0,1,3,0
Gesture 2,26:39.8,29438,29368,2755,5295,1968,3590,6354,1168,3032,2043,1340,2588,1023,29456,29474,29500,29504,5831,2104,1318,1283,2091,9997,1573,17731,13587,3177,1318,1362,3019,17749,29399,1419539712,20,67,973,13692,397,64995,56563,0,1,3,0
Gesture 2,26:39.9,29452,29403,2759,5396,1955,3563,6394,1151,3019,2034,1379,2570,988,29509,29496,29562,29535,5805,2113,1313,1291,2100,10019,1577,17789,13565,3164,1283,1379,3014,17740,29487,1419607168,21,69,974,13692,397,64995,56563,0,1,3,0
Gesture 2,26:40.0,29447,29373,2746,5282,1977,3515,6358,1199,3023,2043,1388,2544,1006,29504,29452,29491,29487,5796,2131,1327,1274,2083,10050,1608,17709,13398,3203,1291,1371,2992,17731,29412,1419674880,23,67,973,13692,397,64995,56563,0,1,3,0
Gesture 2,26:40.1,29469,29355,2733,5312,2017,3541,6345,1173,3001,2056,1388,2544,1045,29469,29469,29504,29518,5835,2104,1335,1287,2087,10006,1560,17753,13535,3155,1305,1393,3032,17758,29447,1419743104,25,66,974,13692,397,64995,56563,0,1,3,0
Gesture 2,26:40.2,29469,29430,2750,5317,2030,3524,6341,1221,3005,2030,1384,2553,1015,29478,29491,29496,29496,5831,2157,1296,1278,2091,10067,1533,17749,13636,3186,1291,1388,3005,17727,29416,1419812736,27,68,973,13692,397,64995,56563,0,1,3,0
Gesture 2,26:40.3,29487,29447,2786,5317,1968,3555,6358,1168,3019,2043,1393,2601,1054,29518,29504,29522,29570,5787,2118,1305,1270,2096,10045,1560,17868,13803,3172,1309,1375,2992,17780,29443,1419881984,27,70,975,13692,397,64995,56563,0,1,3,0
Gesture 2,26:40.4,29425,29465,2777,5312,1973,3559,6376,1195,3019,1986,1388,2588,1032,29526,29487,29509,29557,5840,2091,1318,1270,2109,10072,1551,17991,13926,3137,1313,1415,3019,17718,29395,1419951616,25,67,972,13692,397,64995,56563,0,1,3,0
Gesture 2,26:40.5,29430,29359,2750,5352,1946,3533,6380,1173,3058,2017,1410,2575,979,29535,29465,29540,29540,5809,2122,1309,1287,2078,10041,1560,18197,14141,3168,1278,1388,3027,17753,29447,1420018944,24,67,973,13692,397,64995,56563,0,1,3,0
Gesture 2,26:40.6,29434,29395,2790,5330,1973,3537,6429,1182,3045,2047,1366,2566,1023,29434,29491,29518,29491,5822,2091,1327,1252,2069,10037,1595,17872,13860,3133,1291,1379,3019,17705,29443,1420086528,24,67,976,13692,397,64995,56563,0,1,3,0
Gesture 2,26:40.7,29412,29434,2768,5356,1995,3541,6367,1177,3041,2047,1371,2592,1015,29482,29504,29474,29491,5844,2131,1309,1305,2083,10019,1564,17802,13820,3164,1300,1388,3032,17806,29399,1420156416,24,68,974,13692,397,64995,56563,0,1,3,0
Gesture 2,26:40.8,29430,29368,2746,5304,1933,3541,6354,1146,3067,2017,1362,2566,1001,29447,29531,29430,29500,5822,2122,1322,1278,2078,10010,1595,17912,13992,3168,1327,1379,3036,17727,29430,1420224512,20,64,971,13692,397,64995,56563,0,1,3,0
Gesture 2,26:40.9,29416,29390,2764,5321,1990,3524,6336,1182,3010,2017,1366,2575,1050,29465,29469,29553,29482,5778,2100,1322,1274,2131,10045,1586,17912,13803,3177,1327,1393,3014,17727,29443,1420291712,22,66,973,13692,397,64995,56563,0,1,3,0
Gesture 2,26:41.0,29447,29430,2768,5321,1955,3541,6358,1195,3032,2030,1362,2570,1006,29496,29500,29540,29544,5849,2100,1305,1305,2091,10054,1599,17978,14058,3155,1313,1366,3027,17731,29425,1420359680,22,71,974,13692,397,64995,56563,0,1,3,0
Gesture 2,26:41.1,29355,29434,2750,5321,2012,3550,6358,1199,3076,2047,1406,2531,966,29465,29518,29509,29526,5787,2087,1305,1305,2126,10041,1590,17964,13891,3164,1270,1384,3019,17727,29421,1420428416,23,68,972,13692,397,64995,56563,0,1,3,0
Gesture 2,26:41.2,29447,29386,2737,5312,1959,3555,6358,1177,3062,2030,1388,2588,1006,29491,29474,29491,29544,5831,2118,1371,1309,2109,10037,1533,18048,13952,3111,1331,1357,2997,17731,29447,1420496128,23,65,972,13692,397,64995,56563,0,1,3,0
Gesture 2,26:41.3,29438,29386,2764,5299,1951,3559,6376,1160,3014,2017,1384,2570,1015,29452,29474,29500,29474,5827,2096,1331,1278,2100,10006,1582,17942,13992,3177,1300,1353,3027,17745,29443,1420565504,25,68,977,13692,397,64995,56563,0,1,3,0
Gesture 2,26:41.4,29509,29452,2742,5304,1968,3546,6385,1160,3045,2043,1384,2575,993,29416,29329,29557,29579,5840,2096,1327,1287,2100,10019,1568,17947,13913,3128,1300,1397,3049,17731,29513,1420633344,24,65,975,13692,397,64995,56563,0,1,3,0
Gesture 2,26:41.5,29465,29421,2768,5343,1973,3563,6363,1164,3058,2034,1437,2557,988,29478,29465,29513,29513,5835,2135,1296,1274,2074,10037,1573,18008,13970,3168,1318,1371,2988,17749,29399,1420700800,25,68,972,13692,397,64995,56563,0,1,3,0
Gesture 2,26:41.6,29421,29390,2759,5339,1968,3537,6336,1186,3032,2030,1406,2575,1015,29500,29474,29588,29548,5840,2122,1313,1300,2065,10010,1560,18320,14093,3137,1309,1357,2992,17745,29425,1420768512,25,66,976,13692,397,64995,56563,0,1,3,0
Gesture 2,26:41.7,29399,29390,2772,5339,1973,3528,6376,1186,2992,2012,1371,2575,1015,29460,29487,29487,29535,5840,2126,1353,1265,2065,10028,1560,18158,14097,3159,1318,1349,3023,17753,29460,1420838528,25,67,973,13692,397,64995,56563,0,1,3,0
Gesture 2,26:41.8,29430,29368,2759,5321,1986,3581,6376,1190,3054,2052,1344,2592,1006,29504,29482,29491,29500,5800,2122,1296,1248,2069,9984,1551,17920,13693,3164,1274,1384,3027,17714,29399,1420906624,25,66,974,13692,397,64995,56563,0,1,3,0
Gesture 2,26:41.9,29504,29346,2750,5348,1990,3550,6332,1177,3032,2012,1384,2535,1028,29496,29469,29535,29509,5805,2144,1318,1265,2052,10098,1586,17687,13631,3168,1309,1357,3014,17740,29474,1420976384,27,68,972,13692,397,64995,56563,0,1,3,0
Gesture 2,26:42.0,29438,29333,2729,5339,1981,3546,6301,1186,3019,2012,1375,2583,1010,29447,29500,29504,29504,5822,2100,1296,1248,2074,9979,1568,17714,13438,3155,1309,1357,3027,17749,29373,1421044224,25,67,974,13692,397,64995,56563,0,1,3,0
Gesture 2,26:42.1,29416,29364,2711,5317,1973,3568,6292,1182,3027,2043,1371,2575,1023,29531,29460,29557,29548,5840,2100,1270,1261,2118,10037,1577,17789,13776,3164,1283,1401,3032,17745,29399,1421112320,24,65,971,13692,397,64995,56563,0,1,3,0
Gesture 2,26:42.2,29381,29381,2764,5308,2008,3572,6301,1190,3076,2021,1397,2579,1015,29518,29522,29478,29487,5809,2100,1318,1252,2109,10054,1560,18052,14005,3124,1296,1379,3045,17709,29373,1421180160,25,65,973,13692,397,64995,56563,0,1,3,0
Gesture 2,26:42.3,29474,29359,2777,5304,2003,3577,6350,1182,3032,2003,1384,2557,997,29562,29509,29509,29562,5853,2131,1313,1300,2104,9975,1586,17920,13833,3168,1300,1393,3019,17740,29456,1421248640,25,67,972,13692,397,64995,56563,0,1,3,0
Gesture 2,26:42.4,29412,29355,2781,5308,1959,3515,6363,1204,3041,2030,1375,2588,984,29474,29504,29513,29474,5835,2122,1291,1261,2118,10081,1582,18035,13957,3190,1305,1393,3036,17749,29430,1421316352,23,67,974,13692,397,64995,56563,0,1,3,0
Gesture 2,26:42.5,29443,29399,2764,5282,1946,3541,6398,1199,3076,2047,1388,2535,1023,29504,29544,29535,29553,5796,2140,1305,1278,2131,10006,1555,18043,13943,3128,1256,1327,3036,17718,29482,1421384960,22,65,974,13692,397,64995,56563,0,1,3,0
Gesture 2,26:42.6,29469,29425,2772,5317,1990,3563,6372,1182,3054,2043,1379,2570,1050,29504,29474,29513,29566,5822,2126,1300,1274,2104,10045,1560,18166,14071,3190,1309,1384,3049,17775,29421,1421455872,22,67,974,13692,397,64995,56563,0,1,3,0
Gesture 2,26:42.7,29460,29395,2781,5352,2012,3568,6332,1217,3023,2012,1388,2557,979,29460,29531,29575,29562,5827,2131,1313,1287,2087,10059,1568,18153,13904,3128,1300,1393,3045,17775,29452,1421524864,24,68,975,13692,397,64995,56563,0,1,3,0
Gesture 2,26:42.8,29469,29416,2742,5317,1977,3550,6350,1199,3036,2039,1362,2575,988,29443,29482,29562,29513,5853,2118,1291,1256,2078,10010,1595,17942,13926,3155,1252,1423,3019,17736,29474,1421594240,24,67,972,13692,397,64995,56563,0,1,3,0
Gesture 2,26:42.9,29416,29373,2764,5330,1999,3528,6350,1177,3027,2052,1423,2583,1006,29491,29535,29522,29583,5805,2104,1322,1252,2104,10015,1555,18175,14163,3181,1313,1379,3014,17718,29425,1421662336,23,67,971,13692,397,64995,56563,0,1,3,0
Gesture 2,26:43.0,29425,29359,2808,5299,1995,3550,6372,1190,3041,2021,1371,2601,1006,29456,29496,29487,29478,5822,2126,1318,1256,2109,10006,1568,18131,14027,3128,1283,1375,3001,17705,29478,1421731456,24,66,973,13692,397,64995,56563,0,1,3,0
Gesture 2,26:43.1,29443,29377,2742,5330,1999,3528,6336,1190,3023,2017,1393,2553,1032,29509,29478,29522,29491,5818,2144,1357,1274,2078,10028,1560,18175,14066,3159,1291,1419,3001,17745,29438,1421799424,24,67,972,13692,397,64995,56563,0,1,3,0
Gesture 2,26:43.2,29434,29395,2772,5299,1955,3506,6394,1168,3049,2065,1371,2557,1050,29509,29513,29522,29482,5866,2148,1327,1256,2078,10076,1573,18232,14128,3133,1296,1340,2988,17753,29430,1421869824,24,66,973,13692,397,64995,56563,0,1,3,0
Gesture 2,26:43.3,29399,29311,2737,5330,1951,3541,6389,1217,3036,2025,1375,2592,1010,29482,29443,29513,29509,5857,2109,1300,1287,2091,9997,1564,18092,14018,3168,1296,1362,3032,17758,29386,1421937792,24,68,973,13692,397,64995,56563,0,1,3,0
Gesture 2,26:43.4,29469,29364,2737,5317,1986,3541,6380,1168,3071,2030,1410,2562,975,29504,29496,29562,29535,5818,2113,1274,1252,2122,10054,1564,18030,14018,3155,1287,1371,3041,17718,29456,1422005376,24,67,971,13692,397,64995,56563,0,1,3,0
Gesture 2,26:43.5,29421,29386,2777,5352,1977,3541,6385,1182,3027,2012,1340,2588,1010,29504,29447,29487,29535,5835,2104,1322,1287,2069,10019,1595,17775,13741,3142,1313,1388,3019,17679,29425,1422073472,22,65,975,13692,397,64995,56563,0,1,3,0
Gesture 2,26:43.6,29430,29364,2742,5295,1973,3520,6358,1151,2997,2021,1371,2570,1037,29500,29504,29504,29504,5818,2087,1300,1296,2104,10037,1586,18013,13939,3120,1296,1379,3019,17705,29456,1422143616,24,66,975,13692,397,64995,56563,0,1,3,0
Gesture 2,26:43.7,29522,29496,2764,5282,1977,3563,6341,1155,3045,2052,1375,2575,1001,29386,29416,29526,29518,5800,2126,1300,1278,2122,10072,1560,17973,13935,3203,1296,1393,3005,17775,29482,1422214016,24,69,976,13692,397,64995,56563,0,1,3,0
Gesture 2,26:43.8,29443,29346,2799,5343,1986,3546,6341,1173,3071,2052,1362,2570,1001,29496,29509,29535,29540,5853,2113,1309,1287,2109,9993,1577,17995,13820,3115,1300,1379,3014,17696,29386,1422281856,25,66,973,13692,397,64995,56563,0,1,3,0
Gesture 2,26:43.9,29434,29368,2724,5330,1955,3559,6358,1190,3032,2034,1410,2583,1015,29456,29430,29487,29531,5835,2113,1265,1283,2118,10059,1568,18180,13913,3124,1278,1353,3032,17709,29443,1422350336,24,67,974,13692,397,64995,56563,0,1,3,0
Gesture 2,26:44.0,29465,29359,2790,5339,1977,3563,6398,1164,3062,2030,1397,2570,1023,29504,29496,29513,29553,5831,2118,1300,1291,2061,10001,1568,17942,14031,3155,1296,1393,3010,17745,29482,1422419456,24,69,975,13692,397,64995,56563,0,1,3,0
Gesture 2,26:44.1,29438,29351,2790,5308,2017,3537,6345,1190,3041,2039,1344,2583,997,29504,29496,29496,29496,5805,2100,1283,1300,2087,10063,1551,18043,13754,3159,1291,1379,3014,17723,29443,1422487936,24,67,974,13692,397,64995,56563,0,1,3,0
Gesture 2,26:44.2,29408,29403,2755,5317,1986,3594,6372,1190,3054,2056,1393,2566,1041,29434,29456,29500,29522,5827,2126,1318,1261,2074,10072,1604,17793,13855,3155,1278,1366,3005,17740,29421,1422558848,24,65,974,13692,397,64995,56563,0,1,3,0
Gesture 2,26:44.3,29438,29351,2794,5326,1959,3511,6376,1164,3054,2034,1327,2548,988,29500,29482,29535,29575,5813,2087,1327,1252,2061,10032,1577,18136,14009,3159,1318,1393,3010,17705,29399,1422627712,23,65,973,13692,397,64995,56563,0,1,3,0
Gesture 2,26:44.4,29386,29337,2772,5291,1990,3568,6367,1168,3027,2052,1393,2583,1019,29482,29522,29500,29509,5849,2091,1313,1300,2061,10006,1595,18083,14058,3146,1283,1393,3023,17714,29447,1422698240,27,68,971,13692,397,64995,56563,0,1,3,0
Gesture 2,26:44.5,29474,29324,2742,5321,1981,3515,6367,1164,3062,2025,1401,2557,993,29491,29518,29482,29509,5791,2122,1322,1305,2078,10019,1564,17978,13860,3120,1322,1388,3010,17736,29438,1422767360,24,66,974,13692,397,64995,56563,0,1,3,0
Gesture 2,26:44.6,29482,29421,2768,5343,1977,3555,6367,1182,3045,2074,1397,2601,1019,29416,29438,29430,29500,5827,2083,1327,1278,2113,10050,1577,18118,13891,3146,1331,1415,3001,17775,29544,1422838528,24,67,972,13692,397,64995,56563,0,1,3,0
Gesture 2,26:44.7,29412,29373,2750,5295,1977,3537,6354,1190,3001,2017,1388,2557,1015,29496,29522,29566,29522,5809,2126,1305,1265,2087,10041,1568,18030,13948,3133,1283,1393,3036,17709,29447,1422909312,25,68,972,13692,397,64995,56563,0,1,3,0
Gesture 2,26:44.8,29482,29302,2755,5312,1977,3563,6389,1164,3041,2100,1379,2575,1010,29478,29434,29531,29544,5840,2104,1322,1274,2100,10015,1573,17903,13847,3146,1344,1393,3067,17749,29416,1422978560,25,68,973,13692,397,64995,56563,0,1,3,0
Gesture 2,26:44.9,29377,29395,2764,5312,1951,3546,6389,1168,3036,2039,1379,2583,1032,29469,29487,29531,29518,5822,2122,1300,1291,2091,10041,1586,17846,13737,3181,1300,1344,3036,17736,29456,1423049472,23,62,977,13692,397,64995,56563,0,1,3,0
Gesture 2,26:45.0,29412,29390,2794,5317,2003,3546,6380,1195,3076,2065,1375,2575,1028,29452,29474,29478,29500,5813,2135,1305,1265,2096,10019,1599,17898,13816,3181,1300,1362,3001,17718,29460,1423118080,24,68,976,13692,397,64995,56563,0,1,3,0
Gesture 2,26:45.1,29421,29320,2750,5330,1990,3559,6402,1182,3023,2039,1371,2566,988,29487,29500,29491,29540,5840,2140,1296,1270,2118,10045,1560,17907,13768,3128,1287,1388,3019,17745,29395,1423186176,26,68,973,13692,397,64995,56563,0,1,3,0
Gesture 2,26:45.2,29474,29443,2733,5339,1990,3528,6411,1173,3036,2030,1362,2583,1010,29346,29311,29504,29504,5831,2100,1318,1278,2065,10023,1555,17824,13904,3168,1327,1371,3027,17793,29443,1423255296,26,64,976,13692,397,64995,56563,0,1,3,0
Gesture 2,26:45.3,29425,29337,2777,5286,1995,3577,6376,1182,3036,2039,1410,2557,1001,29474,29416,29487,29509,5805,2104,1335,1283,2091,10028,1586,17982,13992,3159,1309,1384,3001,17679,29425,1423322624,22,67,974,13692,397,64995,56563,0,1,3,0
Gesture 2,26:45.4,29447,29531,2737,5356,1977,3524,6394,1199,3019,2025,1371,2548,1001,29373,29412,29403,29452,5805,2096,1313,1283,2104,10015,1538,17885,13763,3137,1313,1366,3005,17771,29465,1423391616,23,67,973,13692,397,64995,56563,0,1,3,0
Gesture 2,26:45.5,29465,29355,2755,5317,1964,3524,6407,1146,3054,2021,1406,2592,1059,29421,29438,29531,29518,5835,2153,1305,1318,2091,9988,1604,17986,13838,3159,1283,1375,3023,17727,29408,1423461248,26,67,973,13692,397,64995,56563,0,1,3,0
Gesture 2,26:45.6,29447,29368,2759,5304,2012,3550,6451,1142,3032,2043,1384,2548,1023,29513,29474,29544,29509,5840,2083,1313,1305,2069,10023,1555,17758,13680,3199,1283,1362,3023,17723,29447,1423531136,22,65,973,13692,397,64995,56563,0,1,3,0
Gesture 2,26:45.7,29408,29311,2786,5264,1990,3515,6358,1195,3027,2025,1393,2579,1006,29465,29487,29469,29504,5835,2100,1327,1296,2069,10006,1573,17982,13935,3155,1313,1366,2992,17736,29412,1423599744,24,68,975,13692,397,64995,56563,0,1,3,0
Gesture 2,26:45.8,29438,29355,2733,5334,1973,3563,6411,1173,3036,2030,1353,2557,997,29496,29487,29553,29535,5840,2122,1300,1296,2109,10037,1568,18052,14053,3128,1296,1357,3036,17696,29438,1423668224,22,68,974,13692,397,64995,56563,0,1,3,0
Gesture 2,26:45.9,29469,29337,2746,5361,1959,3520,6424,1182,3027,1986,1393,2583,984,29465,29425,29500,29531,5844,2113,1300,1261,2091,10023,1542,18000,13855,3142,1278,1375,3032,17753,29434,1423736832,25,64,973,13692,397,64995,56563,0,1,3,0
Gesture 2,26:46.0,29474,29373,2803,5308,1999,3524,6398,1199,3023,2034,1393,2597,1010,29491,29570,29553,29579,5849,2074,1305,1287,2078,10032,1582,17995,13930,3150,1327,1397,3027,17753,29447,1423804928,26,67,974,13692,397,64995,56563,0,1,3,0
Gesture 2,26:46.1,29465,29421,2746,5321,1964,3524,6376,1177,3027,2047,1393,2535,984,29430,29474,29491,29452,5822,2126,1357,1305,2074,10067,1555,18074,14031,3115,1309,1379,2988,17762,29469,1423876096,25,67,974,13692,397,64995,56563,0,1,3,0
Gesture 2,26:46.2,29421,29355,2759,5308,2056,3555,6363,1199,3049,2069,1388,2570,971,29513,29496,29526,29548,5844,2135,1322,1261,2122,10076,1599,18057,13974,3146,1283,1388,3019,17723,29438,1423944704,25,66,975,13692,397,64995,56563,0,1,3,0
Gesture 2,26:46.3,29465,29355,2772,5326,1977,3533,6376,1173,3014,2043,1366,2540,1019,29522,29434,29482,29478,5818,2122,1313,1274,2069,10050,1617,18004,13921,3137,1309,1388,3032,17714,29482,1424013440,24,66,974,13692,397,64995,56563,0,1,3,0
Gesture 2,26:46.4,29403,29386,2790,5321,1977,3581,6398,1186,3005,1986,1397,2570,988,29465,29487,29513,29482,5809,2126,1335,1252,2039,10067,1538,18162,14044,3128,1313,1397,3032,17762,29412,1424082944,21,70,976,13692,397,64995,56563,0,1,3,0
Gesture 2,26:46.5,29443,29395,2746,5361,1977,3524,6385,1168,3019,2017,1410,2557,997,29522,29469,29518,29518,5822,2126,1318,1274,2148,10001,1568,17947,13921,3111,1265,1349,3032,17749,29496,1424151424,25,67,973,13692,397,64995,56563,0,1,3,0
Gesture 2,26:46.6,29456,29373,2755,5299,1995,3550,6394,1190,3019,2008,1401,2540,1010,29518,29509,29575,29575,5862,2109,1296,1296,2096,10023,1564,18127,14062,3124,1313,1401,3032,17709,29465,1424219264,24,66,975,13692,397,64995,56563,0,1,3,0
Gesture 2,26:46.7,29425,29329,2764,5308,2021,3568,6354,1182,3032,2039,1406,2557,975,29487,29518,29557,29562,5774,2109,1283,1261,2096,10023,1560,18052,13961,3168,1291,1401,3045,17749,29416,1424289536,23,67,976,13692,397,64995,56563,0,1,3,0
Gesture 2,26:46.8,29443,29430,2781,5317,2008,3506,6380,1173,3054,2047,1357,2597,979,29491,29509,29496,29509,5822,2109,1305,1248,2100,10045,1577,18048,13939,3155,1296,1371,3001,17753,29399,1424360832,23,69,972,13692,397,64995,56563,0,1,3,0
Gesture 2,26:46.9,29408,29443,2715,5312,1995,3520,6389,1138,3049,2021,1410,2588,1010,29460,29491,29575,29562,5791,2122,1287,1296,2096,10045,1564,17969,13829,3194,1278,1393,2944,17718,29456,1424431104,24,66,972,13692,397,64995,56563,0,1,3,0
Gesture 2,26:47.0,29443,29364,2746,5304,1990,3568,6433,1138,3045,2021,1388,2557,1015,29447,29456,29522,29522,5844,2104,1327,1283,2087,10010,1577,17925,13820,3137,1296,1388,3010,17736,29456,1424499712,24,67,974,13692,397,64995,56563,0,1,3,0
Gesture 2,26:47.1,29430,29425,2729,5299,1955,3537,6376,1155,3027,2025,1393,2579,984,29496,29513,29496,29548,5813,2135,1322,1287,2083,10023,1564,17907,13895,3137,1274,1415,3005,17723,29474,1424570368,26,71,976,13692,397,64995,56563,0,1,3,0
Gesture 2,26:47.2,29447,29373,2755,5321,1973,3555,6372,1212,3014,2030,1384,2592,1010,29491,29522,29548,29482,5857,2109,1305,1296,2131,10015,1564,18030,13904,3168,1327,1375,2988,17705,29438,1424638720,27,66,973,13692,397,64995,56563,0,1,3,0
Gesture 2,26:47.3,29482,29342,2790,5321,1999,3572,6394,1190,3041,2056,1410,2619,1015,29496,29526,29535,29592,5844,2113,1309,1296,2087,10028,1568,18057,14031,3155,1335,1371,3027,17679,29434,1424709120,26,66,972,13692,397,64995,56563,0,1,3,0
Gesture 2,26:47.4,29491,29403,2742,5299,1990,3555,6389,1204,3045,2034,1349,2610,1019,29491,29500,29513,29548,5831,2140,1309,1287,2083,9997,1608,18065,13864,3168,1296,1366,3027,17745,29456,1424779520,25,66,974,13692,397,64995,56563,0,1,3,0
Gesture 2,26:47.5,29421,29368,2794,5343,1951,3572,6402,1195,3014,2039,1384,2566,1015,29496,29430,29513,29518,5827,2100,1309,1291,2104,10010,1604,17995,13833,3190,1305,1371,3041,17762,29430,1424848128,26,69,973,13692,397,64995,56563,0,1,3,0
Gesture 2,26:47.6,29452,29434,2764,5326,2030,3511,6367,1186,3054,2025,1353,2562,1006,29504,29487,29526,29553,5844,2100,1349,1278,2087,10023,1612,18184,14097,3177,1300,1388,3023,17745,29482,1424917248,24,67,973,13692,397,64995,56563,0,1,3,0
Gesture 2,26:47.7,29478,29395,2786,5299,1955,3537,6402,1190,3049,2021,1366,2544,993,29474,29469,29518,29522,5840,2109,1331,1318,2087,10028,1590,18017,13935,3194,1270,1375,3005,17736,29408,1424988288,25,68,973,13692,397,64995,56563,0,1,3,0
Gesture 2,26:47.8,29430,29465,2764,5304,1955,3537,6398,1173,3027,2008,1406,2597,993,29500,29526,29553,29522,5827,2135,1335,1270,2122,10023,1599,18162,14154,3164,1313,1375,3023,17762,29425,1425058176,24,69,974,13692,397,64995,56563,0,1,3,0
Gesture 2,26:47.9,29434,29478,2742,5273,1942,3563,6380,1230,3036,2039,1406,2553,1001,29504,29469,29513,29491,5822,2122,1309,1305,2069,10050,1577,18162,14247,3199,1291,1375,3036,17714,29438,1425129728,24,64,974,13692,397,64995,56563,0,1,3,0
Gesture 2,26:48.0,29456,29447,2742,5339,1999,3563,6380,1248,3014,2043,1371,2566,984,29518,29478,29522,29553,5809,2100,1300,1256,2109,10019,1560,18184,14014,3150,1274,1366,3027,17687,29434,1425199360,24,64,976,13692,397,64995,56563,0,1,3,0
Gesture 2,26:48.1,29434,29373,2781,5317,1977,3541,6389,1173,3036,2039,1366,2614,1010,29482,29456,29522,29531,5822,2118,1305,1270,2131,10041,1555,17991,13812,3164,1274,1401,2997,17731,29460,1425269120,25,65,973,13692,397,64995,56563,0,1,3,0
Gesture 2,26:48.2,29430,29430,2772,5343,1959,3550,6380,1173,3076,2043,1362,2592,988,29482,29504,29566,29562,5853,2122,1331,1291,2096,10041,1604,17978,13768,3111,1309,1362,3010,17749,29496,1425339008,25,68,972,13692,397,64995,56563,0,1,3,0
Gesture 2,26:48.3,29425,29447,2772,5330,1964,3541,6389,1195,3023,1995,1393,2592,993,29491,29452,29531,29544,5835,2100,1327,1296,2087,10059,1551,17951,13833,3133,1291,1393,3027,17731,29487,1425408640,25,64,973,13692,397,64995,56563,0,1,3,0
Gesture 2,26:48.4,29408,29447,2742,5321,1977,3537,6380,1186,3014,2056,1406,2597,1054,29509,29504,29575,29548,5800,2118,1335,1291,2096,10023,1582,18008,13930,3137,1270,1366,3001,17797,29430,1425480704,23,66,971,13692,397,64995,56563,0,1,3,0
Gesture 2,26:48.5,29438,29456,2724,5308,1968,3537,6437,1186,3054,2012,1406,2583,1001,29482,29491,29557,29469,5840,2109,1322,1274,2083,10006,1582,18052,14018,3186,1318,1384,3001,17731,29482,1425552000,25,69,972,13692,397,64995,56563,0,1,3,0
Gesture 2,26:48.6,29438,29381,2777,5321,1995,3559,6380,1164,3036,2034,1384,2592,1028,29526,29531,29544,29557,5831,2113,1318,1287,2100,10050,1612,18109,14031,3120,1344,1393,3023,17745,29460,1425622016,24,65,974,13692,397,64995,56563,0,1,3,0
Gesture 2,26:48.7,29416,29452,2742,5308,1973,3546,6429,1195,3019,2047,1410,2601,1001,29535,29478,29557,29562,5844,2144,1327,1309,2109,10059,1582,18017,13979,3150,1300,1401,3036,17696,29434,1425693312,25,65,972,13692,397,64995,56563,0,1,3,0
Gesture 2,26:48.8,29425,29438,2772,5330,1973,3559,6372,1186,3001,2030,1379,2588,1010,29478,29513,29513,29566,5822,2144,1327,1305,2131,10028,1560,17859,13917,3120,1296,1393,3023,17775,29430,1425762304,24,67,974,13692,397,64995,56563,0,1,3,0
Gesture 2,26:48.9,29469,29438,2803,5352,1981,3537,6363,1164,3045,2039,1397,2575,1015,29522,29482,29553,29575,5835,2148,1296,1265,2100,10015,1595,17938,13807,3137,1309,1384,3019,17727,29421,1425831040,25,67,973,13692,397,64995,56563,0,1,3,0
Gesture 2,26:49.0,29460,29390,2764,5348,1995,3568,6437,1204,3019,2061,1362,2601,1006,29504,29491,29509,29548,5857,2109,1300,1265,2091,10050,1599,17916,13904,3137,1318,1344,3036,17749,29438,1425901312,24,66,975,13692,397,64995,56563,0,1,3,0
Gesture 2,26:49.1,29395,29469,2786,5317,2008,3528,6350,1177,3045,2065,1406,2570,975,29487,29491,29526,29522,5835,2104,1322,1318,2109,10041,1577,17925,13957,3155,1309,1362,3058,17731,29438,1425971840,25,67,974,13692,397,64995,56563,0,1,3,0
Gesture 2,26:49.2,29469,29421,2750,5286,1964,3520,6354,1168,3067,2034,1410,2583,1023,29456,29469,29513,29504,5822,2118,1335,1309,2069,10037,1599,17951,13794,3168,1353,1375,3041,17723,29478,1426043008,22,70,974,13692,397,64995,56563,0,1,3,0
Gesture 2,26:49.3,29452,29416,2755,5321,1964,3550,6376,1190,3019,1990,1406,2597,979,29460,29509,29544,29540,5813,2118,1309,1313,2096,10028,1582,18074,13961,3137,1300,1410,3014,17696,29465,1426113920,21,64,973,13692,397,64995,56563,0,1,3,0
Gesture 2,26:49.4,29434,29403,2786,5330,1977,3577,6363,1195,3010,2039,1375,2623,1010,29447,29447,29522,29509,5853,2122,1331,1283,2104,10019,1590,18008,13943,3120,1309,1366,3041,17745,29465,1426182272,25,66,975,13692,397,64995,56563,0,1,3,0
Gesture 2,26:49.5,29421,29452,2808,5348,1986,3541,6394,1186,3045,2030,1371,2570,1006,29526,29509,29526,29518,5787,2096,1296,1300,2104,10032,1599,18193,14000,3164,1296,1366,3062,17753,29469,1426253184,23,69,974,13692,397,64995,56563,0,1,3,0
Gesture 2,26:49.6,29434,29390,2733,5299,1995,3550,6376,1199,3036,2047,1406,2583,1028,29478,29491,29518,29509,5831,2126,1318,1305,2074,10045,1590,17929,13864,3098,1327,1379,3014,17718,29443,1426322560,24,65,973,13692,397,64995,56563,0,1,3,0
Gesture 2,26:49.7,29452,29377,2772,5308,1959,3546,6358,1160,3032,2052,1344,2583,1032,29518,29478,29526,29588,5822,2131,1340,1296,2083,10050,1555,18008,13798,3199,1305,1375,3054,17731,29438,1426391552,24,65,974,13692,397,64995,56563,0,1,3,0
Gesture 2,26:49.8,29460,29373,2746,5343,1973,3555,6385,1177,3027,2025,1406,2566,1023,29491,29456,29526,29544,5827,2087,1318,1221,2083,10041,1564,18004,13855,3155,1305,1366,2975,17727,29452,1426461184,24,69,974,13692,397,64995,56563,0,1,3,0
Gesture 2,26:49.9,29548,29465,2812,5304,1990,3528,6354,1142,3010,2061,1423,2540,1019,29443,29412,29430,29377,5875,2087,1318,1278,2096,10045,1573,17894,13917,3177,1309,1375,3023,17771,29487,1426530560,24,69,973,13692,397,64995,56563,0,1,3,0
Gesture 2,26:50.0,29403,29474,2715,5312,1946,3524,6358,1195,3036,2052,1388,2570,993,29522,29535,29531,29522,5827,2122,1300,1278,2118,10041,1586,17969,13886,3115,1327,1357,3023,17745,29430,1426600064,22,65,972,13692,397,64995,56563,0,1,3,0
Gesture 2,26:50.1,29416,29421,2750,5330,1990,3533,6367,1208,3027,2078,1393,2535,993,29487,29474,29544,29601,5835,2096,1318,1305,2083,10045,1595,18017,13979,3164,1313,1375,3027,17723,29447,1426668160,25,68,974,13692,397,64995,56563,0,1,3,0
Gesture 2,26:50.2,29491,29408,2724,5339,1981,3546,6345,1190,3058,2034,1375,2588,993,29491,29491,29575,29513,5827,2131,1335,1278,2078,10019,1595,18013,13794,3111,1313,1379,3010,17745,29456,1426738048,25,68,974,13692,397,64995,56563,0,1,3,0
Gesture 2,26:50.3,29425,29465,2799,5299,1981,3546,6345,1190,3032,2039,1371,2570,1023,29491,29430,29522,29526,5835,2122,1283,1291,2091,10019,1577,18079,14141,3164,1270,1362,3023,17797,29469,1426808832,23,67,975,13692,397,64995,56563,0,1,3,0
Gesture 2,26:50.4,29425,29430,2786,5343,1946,3577,6350,1212,3041,2047,1388,2540,1028,29531,29509,29557,29575,5849,2074,1305,1296,2096,10063,1590,18026,13899,3142,1270,1366,3010,17762,29469,1426878848,24,65,976,13692,397,64995,56563,0,1,3,0
Gesture 2,26:50.5,29434,29329,2777,5286,1995,3537,6385,1182,3027,2061,1353,2548,988,29478,29469,29548,29526,5805,2122,1327,1283,2074,10041,1568,17942,13974,3124,1296,1353,3041,17709,29386,1426947328,26,68,972,13692,397,64995,56563,0,1,3,0
Gesture 2,26:50.6,29421,29373,2759,5312,1986,3533,6358,1177,3027,2043,1371,2548,1015,29522,29509,29540,29575,5879,2100,1283,1313,2074,9997,1555,17912,13891,3115,1296,1357,2997,17758,29452,1427018752,25,64,972,13692,397,64995,56563,0,1,3,0
