Scenario,Time,P0,P1,P2,P3,P4,P5,P6,P7,P8,P9,P10,P11,P12,P13,P14,P15,P16,P17,P18,P19,P20,P21,P22,P23,P24,P25,P26,P27,P28,P29,P30,P31,ECG,AX,AY,AZ,QW,QX,QY,QZ,CS,CA,CG,CM
paper,13:15:00.022,29021,7804,3713,1313,949,1256,769,2008,1313,751,716,1924,2733,28863,29118,29162,29122,29197,1516,1261,3216,1103,2983,3269,1072,1054,1006,848,1287,2689,29052,28990,2147483647,64786,250,591,1063,7192,63743,50963,3,3,3,2
paper,13:15:00.217,28946,7817,3673,1243,966,1221,764,2065,1313,676,764,1907,2759,28806,29188,29179,29206,29210,1494,1270,3142,1133,2979,3273,1094,1015,979,861,1322,2693,29100,28964,2147483647,64793,249,591,1063,7192,63743,50963,3,3,3,2
paper,13:15:00.233,29184,7760,3722,1287,944,1274,808,2047,1283,698,773,1946,2768,29126,28894,28924,28863,28876,1467,1265,3150,1160,2975,3295,1076,1081,1006,856,1296,2707,29003,29157,2147483647,64704,289,587,1082,7192,63775,50961,3,3,3,2
paper,13:15:00.406,29025,8024,3985,1278,979,1234,839,2061,1340,764,764,1999,2931,29210,29039,28687,28705,28946,1480,1270,3243,1190,3106,3326,1085,1045,1015,843,1309,2799,29179,29113,2147483647,64747,212,743,1305,7352,64053,51028,3,3,3,2
paper,13:15:00.422,28894,8151,4082,1287,958,1248,826,2061,1331,738,760,2003,2957,28823,29228,29201,29206,29206,1573,1296,3251,1164,3335,3317,1182,1089,997,870,1309,2764,29109,28907,2147483647,64674,163,559,1408,7832,64575,51247,3,3,3,2
paper,13:15:00.606,28832,8296,4227,1300,958,1265,856,2074,1335,742,791,2065,2970,28757,29157,29179,29157,29135,1542,1270,3282,1160,3392,3357,1186,1094,997,900,1322,2808,29047,28749,2147483647,64565,125,455,1375,8367,65221,51520,3,3,3,2
paper,13:15:00.621,28911,8283,4227,1309,984,1252,817,1995,1335,760,764,2043,2900,28845,29184,29219,29184,29228,1564,1305,3295,1182,3344,3361,1186,1063,1019,892,1313,2786,29104,28916,2147483647,64601,126,422,1248,8818,65465,51784,3,3,3,2
paper,13:15:00.807,28894,8274,4209,1318,918,1291,843,2003,1331,755,791,2030,2904,28832,29109,29148,29170,29131,1595,1270,3278,1160,3265,3445,1164,1089,1023,918,1309,2816,29061,28872,2147483647,64751,133,438,1079,9055,65432,51925,3,3,3,2
paper,13:15:00.907,28942,8226,4161,1296,949,1274,826,1995,1331,769,786,2047,2891,28876,29320,29175,29236,29329,1560,1300,3304,1155,3203,3339,1133,1081,1006,887,1327,2768,29078,28889,2147483647,64734,83,394,970,9318,65299,52097,3,3,3,2
paper,13:15:01.006,28836,8028,3955,1287,940,1239,817,1968,1340,786,773,2030,2895,28735,29250,29153,29131,29258,1524,1270,3273,1133,3115,3357,1107,1098,1015,905,1327,2790,29144,28841,2147483647,64696,118,357,871,9407,65162,52155,3,3,3,2
paper,13:15:01.107,28850,7800,3717,1265,975,1221,856,1955,1274,777,786,2012,2874,28990,29285,29162,29236,29298,1542,1296,3238,1146,3062,3278,1125,1098,1032,852,1287,2737,29074,28858,2147483647,64692,131,298,798,9270,65060,52059,3,3,3,2
paper,13:15:01.207,28854,7624,3541,1300,927,1243,834,1937,1291,782,742,2065,2869,28775,29280,29148,29140,29293,1524,1265,3251,1155,3027,3265,1094,1094,979,839,1309,2733,28964,28814,2147483647,64628,76,398,867,9275,65153,52063,3,3,3,2
paper,13:15:01.307,28823,7593,3476,1300,962,1226,843,1929,1322,747,812,1937,2830,28823,29355,29184,29170,29351,1498,1291,3234,1138,2992,3159,1085,1103,1054,843,1287,2737,29069,28832,2147483647,64599,87,355,803,9134,65199,51962,3,3,3,2
paper,13:15:01.406,28916,7562,3388,1261,971,1243,808,1955,1318,773,764,2025,2865,28762,29254,29122,29104,29320,1502,1252,3225,1133,3005,3177,1133,1081,1045,883,1322,2764,29096,28916,2147483647,64636,56,426,728,9137,65265,51959,3,3,3,2
paper,13:15:01.506,28880,7576,3493,1296,958,1265,826,1907,1371,751,795,2017,2777,29039,29293,29144,29232,29342,1520,1239,3260,1151,2970,3216,1085,1089,1010,874,1291,2680,29087,28911,2147483647,64669,72,418,679,9057,65303,51902,3,3,3,2
paper,13:15:01.607,28946,7598,3484,1274,962,1261,817,1885,1349,782,795,1999,2790,28713,29280,29192,29170,29223,1542,1261,3234,1138,2975,3216,1133,1067,1010,861,1305,2733,29179,28951,2147483647,64625,38,407,680,9067,65347,51908,3,3,3,2
paper,13:15:01.707,28902,7615,3533,1309,905,1296,826,1946,1309,773,821,1986,2781,28850,29298,29157,29162,29315,1516,1274,3269,1138,3005,3199,1107,1063,1045,883,1287,2759,29017,28872,2147483647,64665,48,400,674,9006,65366,51867,3,3,3,2
paper,13:15:01.807,28955,7672,3498,1335,905,1243,848,1942,1327,742,804,1999,2759,28845,29346,29206,29210,29311,1538,1278,3260,1168,2957,3273,1116,1098,997,883,1270,2755,29192,28933,2147483647,64631,38,396,681,9000,65383,51862,3,3,3,2
paper,13:15:01.822,28995,7703,3559,1265,931,1274,799,1955,1270,760,769,2047,2759,28801,29236,29131,29118,29254,1551,1265,3243,1168,2939,3238,1120,1028,1019,883,1305,2742,29065,29052,2147483647,64639,63,405,674,8981,65406,51855,3,3,3,2
paper,13:15:02.007,28920,7624,3528,1283,962,1256,830,1946,1327,742,742,1981,2755,28841,29206,29228,29206,29214,1511,1274,3309,1116,2979,3278,1107,1067,1063,848,1300,2729,29109,28924,2147483647,64632,53,408,664,9005,65429,51866,3,3,3,2
paper,13:15:02.107,28916,7637,3541,1278,958,1270,843,1894,1309,742,755,1981,2768,28810,29100,29170,29179,29126,1516,1256,3243,1160,2961,3221,1098,1019,971,817,1261,2711,29017,28823,2147483647,64655,50,392,658,8998,65491,51866,3,3,3,2
paper,13:15:02.207,29008,7642,3546,1283,979,1230,830,1946,1331,755,791,1995,2759,28858,29258,29210,29188,29192,1476,1221,3282,1138,2975,3256,1129,1072,1010,874,1322,2707,29100,29017,2147483647,64631,44,407,668,9043,65506,51890,3,3,3,2
paper,13:15:02.223,29122,7655,3537,1287,927,1243,826,1907,1300,742,769,1981,2737,28792,29210,29192,29148,29140,1533,1256,3291,1155,2909,3199,1089,1098,1006,852,1283,2663,29043,29109,2147483647,64635,41,427,661,9023,65534,51877,3,3,3,2
paper,13:15:02.323,29039,7646,3502,1305,966,1243,843,1929,1291,791,751,1995,2711,28779,29337,29232,29254,29333,1542,1256,3225,1173,2944,3238,1103,1063,993,852,1300,2724,29096,29030,2147483647,64631,34,400,665,9032,0,51883,3,3,3,2
paper,13:15:02.507,29043,7606,3528,1331,940,1274,799,1942,1300,760,786,1924,2729,28920,29153,29153,29131,29144,1502,1274,3295,1182,2948,3234,1107,1050,1045,843,1300,2737,29025,28990,2147483647,64617,39,411,679,9049,32,51894,3,3,3,2
paper,13:15:02.522,28999,7589,3502,1291,971,1239,830,1902,1327,764,755,2025,2729,28823,29315,29214,29236,29271,1520,1278,3256,1138,2909,3194,1133,1072,984,848,1305,2724,29061,28995,2147483647,64653,40,404,680,9040,44,51889,3,3,3,2
paper,13:15:02.707,29170,7611,3471,1296,927,1256,830,1929,1322,782,764,1951,2733,28986,29263,29219,29175,29223,1520,1239,3260,1168,2939,3208,1116,1063,993,839,1313,2698,29131,29166,2147483647,64663,45,394,678,9045,45,51889,3,3,3,2
paper,13:15:02.807,28942,7571,3493,1327,958,1248,812,1959,1291,755,764,1968,2729,28841,29289,29228,29232,29359,1546,1239,3273,1160,2926,3203,1089,1028,1019,874,1309,2645,29065,28968,2147483647,64639,40,394,687,9050,47,51896,3,3,3,2
paper,13:15:02.907,29135,7545,3449,1313,962,1248,839,1929,1335,747,777,1959,2680,28674,29280,29148,29118,29267,1494,1248,3256,1125,2948,3238,1125,1067,997,808,1309,2720,29087,29113,2147483647,64650,43,391,679,9066,52,51906,3,3,3,2
paper,13:15:03.007,28999,7562,3471,1248,931,1252,804,1911,1309,773,782,1951,2707,28740,29179,29153,29210,29232,1529,1252,3291,1146,2953,3216,1125,1063,988,848,1278,2737,29043,28990,2147483647,64631,30,383,662,9077,57,51912,3,3,3,2
paper,13:15:03.023,29118,7554,3476,1309,922,1248,826,1916,1327,773,769,1929,2689,28986,29201,29153,29148,29131,1507,1239,3238,1173,2900,3172,1120,1067,1019,839,1313,2742,29104,29065,2147483647,64629,42,394,709,9074,94,51913,3,3,3,2
paper,13:15:03.206,28995,7558,3445,1344,975,1278,795,1929,1300,747,742,1946,2707,29034,29131,29153,29135,29157,1502,1261,3278,1146,2948,3177,1125,1050,988,843,1313,2737,29008,28964,2147483647,64619,40,403,760,9073,114,51915,3,3,3,2
paper,13:15:03.221,29153,7527,3423,1305,966,1239,760,1889,1300,733,777,1951,2707,29021,29245,29223,29157,29263,1507,1265,3260,1138,2926,3199,1098,1050,1015,878,1300,2689,29034,29104,2147483647,64616,56,374,804,9067,150,51914,3,3,3,2
paper,13:15:03.324,29034,7545,3436,1305,927,1261,808,1924,1331,725,786,1964,2746,29008,29293,29140,29206,29285,1507,1261,3234,1146,2895,3199,1081,1059,1037,848,1331,2729,29104,28995,2147483647,64618,32,372,827,9069,189,51917,3,3,3,2
paper,13:15:03.507,29162,7584,3454,1296,931,1252,791,1946,1318,729,764,1977,2707,29083,29293,29219,29236,29373,1498,1278,3265,1146,2900,3199,1116,1063,979,839,1296,2663,29052,29170,2147483647,64633,23,393,817,9074,210,51920,3,3,3,2
paper,13:15:03.607,29008,7536,3414,1291,953,1239,786,1907,1287,773,804,1990,2667,28995,29184,29113,29140,29166,1480,1243,3265,1146,2931,3181,1098,1076,979,843,1318,2724,29126,29021,2147483647,64606,23,398,802,9092,217,51932,3,3,3,2
paper,13:15:03.707,29162,7527,3423,1305,927,1230,786,1924,1309,799,755,1933,2689,29065,29170,29188,29232,29219,1511,1239,3238,1129,2865,3243,1164,1081,1010,861,1305,2724,29126,29104,2147483647,64624,29,371,797,9094,209,51932,3,3,3,2
paper,13:15:03.807,29087,7558,3392,1287,944,1234,791,1885,1327,720,791,1942,2654,28995,29061,29162,29144,29091,1463,1256,3229,1155,2948,3208,1107,1037,988,865,1331,2724,29047,29157,2147483647,64646,37,365,786,9087,174,51927,3,3,3,2
paper,13:15:03.907,29109,7536,3405,1291,971,1265,786,1898,1305,747,769,1929,2663,29043,29197,29206,29210,29206,1494,1261,3243,1186,2909,3155,1133,1059,997,865,1305,2720,29083,29175,2147483647,64629,29,377,787,9075,173,51919,3,3,3,2
paper,13:15:03.921,29122,7532,3410,1278,918,1256,777,1902,1322,769,764,1977,2641,28959,29113,29131,29131,29140,1498,1265,3225,1116,2878,3164,1103,1072,1010,808,1296,2724,29091,29135,2147483647,64611,33,380,783,9083,171,51924,3,3,3,2
paper,13:15:04.107,29118,7532,3414,1274,958,1252,799,1920,1318,773,786,1937,2680,29047,29188,29201,29201,29188,1507,1256,3295,1173,2917,3155,1107,1059,993,887,1283,2698,29069,29087,2147483647,64604,33,370,783,9080,189,51922,3,3,3,2
paper,13:15:04.216,29153,7554,3432,1331,936,1274,799,1920,1327,747,777,1951,2671,29047,29100,29170,29166,29170,1507,1239,3229,1138,2900,3133,1129,1072,988,861,1283,2733,29104,29074,2147483647,64634,24,405,778,9064,204,51912,3,3,3,2
paper,13:15:04.307,29083,7514,3432,1344,918,1226,808,1929,1296,747,751,1951,2654,29197,29140,28981,28977,29223,1529,1226,3278,1173,2917,3159,1103,1063,1032,900,1270,2724,29025,29126,2147483647,64620,29,363,773,9075,210,51918,3,3,3,2
paper,13:15:04.407,29166,7519,3401,1261,953,1261,782,1898,1322,742,764,1986,2667,28986,29170,29166,29157,29126,1498,1217,3234,1168,2895,3208,1059,1081,1041,834,1305,2750,29109,29131,2147483647,64635,27,371,766,9108,212,51940,3,3,3,2
paper,13:15:04.517,29140,7514,3396,1300,958,1278,764,1929,1327,742,760,1986,2689,29025,29140,29153,29184,29157,1502,1243,3295,1146,2882,3216,1111,1037,1023,856,1256,2724,29091,29104,2147483647,64619,26,369,758,9116,211,51945,3,3,3,2
paper,13:15:04.531,29166,7466,3423,1296,940,1265,808,1911,1322,738,786,1977,2619,29148,29201,28955,28924,29179,1524,1221,3265,1173,2904,3243,1098,1054,1019,852,1283,2733,29122,29131,2147483647,64634,20,369,748,9147,229,51966,3,3,3,2
paper,13:15:04.707,28986,7492,3383,1270,966,1221,804,1964,1305,777,817,1937,2667,29003,29030,29197,29131,29179,1516,1261,3265,1125,2917,3168,1103,1067,1050,865,1335,2742,29157,29069,2147483647,64640,11,373,738,9153,249,51969,3,3,3,2
paper,13:15:04.723,29184,7492,3423,1300,971,1291,795,1924,1349,769,769,1955,2667,29065,29091,29210,29236,29091,1511,1261,3260,1142,2931,3203,1098,1063,1001,826,1309,2729,29118,29157,2147483647,64631,19,370,735,9150,274,51968,3,3,3,2
paper,13:15:04.821,29052,7519,3427,1305,966,1234,808,1929,1270,760,769,1933,2658,29043,28722,29188,29210,28775,1524,1261,3278,1146,2931,3177,1133,1103,1063,848,1327,2724,29078,29003,2147483647,64612,37,358,748,9181,298,51990,3,3,3,2
paper,13:15:04.922,29197,7492,3454,1274,936,1226,804,1924,1296,760,755,1964,2645,29083,29017,29210,29298,28779,1507,1248,3304,1098,2913,3190,1120,1094,1037,861,1291,2729,29118,29144,2147483647,64607,7,373,739,9193,346,51998,3,3,3,2
go to fist,13:15:05.022,29109,7483,3361,1331,953,1186,760,1916,1327,760,769,1946,2658,28990,28797,29140,29175,28823,1476,1270,3313,1160,2939,3168,1094,1067,988,861,1296,2724,29061,29109,2147483647,64625,0,373,733,9228,391,52023,3,3,3,2
go to fist,13:15:05.207,29157,7510,3396,1278,962,1283,808,1946,1309,773,751,1981,2658,29012,29025,29359,29315,28964,1507,1243,3269,1155,2948,3146,1103,1085,993,856,1261,2742,29192,29104,2147483647,64569,1,338,730,9264,382,52048,3,3,3,2
go to fist,13:15:05.307,29113,7501,3375,1274,984,1252,782,1920,1296,751,773,1942,2654,28889,28757,29271,29298,28788,1498,1274,3295,1146,2939,3168,1107,1067,984,887,1309,2724,29012,29065,2147483647,64597,13,360,726,9241,367,52031,3,3,3,2
go to fist,13:15:05.417,29113,7475,3418,1331,949,1243,777,1880,1313,777,791,1942,2667,28937,28889,29210,29192,28981,1480,1248,3265,1142,2917,3190,1120,1063,1023,883,1309,2742,29056,29153,2147483647,64620,24,382,719,9226,359,52020,3,3,3,2
go to fist,13:15:05.432,29126,7488,3379,1265,940,1252,773,1937,1278,777,755,1995,2658,29021,29126,29017,29012,29175,1494,1226,3247,1133,2926,3168,1142,1076,1050,883,1300,2689,29131,29083,2147483647,64619,65529,374,740,9228,345,52023,3,3,3,2
go to fist,13:15:05.522,29008,7483,3353,1283,953,1256,808,1894,1322,742,764,1911,2641,28973,28872,29337,29346,28828,1520,1261,3238,1173,2917,3199,1094,1085,953,852,1287,2750,29069,29100,2147483647,64598,10,338,731,9263,366,52047,3,3,3,2
go to fist,13:15:05.707,29157,7492,3348,1318,958,1212,804,1907,1300,760,799,1964,2627,28832,28775,29289,29289,28740,1520,1265,3282,1199,2931,3172,1063,1098,1019,865,1309,2724,29043,29131,2147483647,64600,65524,354,717,9296,397,52069,3,3,3,2
go to fist,13:15:05.807,29118,7483,3326,1265,953,1230,773,1902,1305,742,760,1951,2632,28929,28757,29153,29197,28872,1472,1256,3295,1155,2895,3137,1125,1050,971,848,1296,2676,29043,29074,2147483647,64630,3,357,690,9280,388,52057,3,3,3,2
go to fist,13:15:05.821,29148,7422,3291,1313,918,1239,791,1911,1278,764,782,1942,2658,28841,28735,29228,29179,28718,1472,1234,3256,1107,2904,3194,1125,1045,1023,878,1300,2720,29091,29153,2147483647,64631,6,333,678,9285,396,52060,3,3,3,2
go to fist,13:15:06.007,29118,7422,3317,1287,922,1226,795,1867,1287,747,742,1946,2614,28986,28907,29263,29267,28951,1507,1252,3247,1146,2838,3186,1129,1089,966,852,1256,2702,29043,29091,2147483647,64616,8,362,683,9307,395,52075,3,3,3,2
go to fist,13:15:06.107,29210,7461,3309,1309,971,1239,843,1880,1287,747,795,1942,2654,28929,28779,29241,29214,28806,1498,1243,3295,1146,2847,3190,1103,1072,1019,870,1287,2724,29078,29162,2147483647,64615,65534,373,674,9305,395,52073,3,3,3,2
go to fist,13:15:06.122,29157,7475,3331,1296,940,1265,786,1924,1318,738,773,1955,2649,28916,28797,29140,29162,28977,1463,1270,3238,1129,2917,3177,1133,1081,988,900,1287,2698,29056,29118,2147483647,64634,65534,366,656,9295,405,52066,3,3,3,2
go to fist,13:15:06.307,29175,7426,3353,1265,958,1208,817,1872,1313,799,777,1946,2641,28959,28788,29337,29368,28718,1502,1265,3247,1146,2913,3186,1063,1059,971,826,1300,2698,29034,29219,2147483647,64632,10,345,648,9317,406,52080,3,3,3,2
go to fist,13:15:06.407,29126,7426,3326,1296,944,1226,769,1951,1283,707,769,1924,2619,28929,28744,29175,29175,28797,1476,1221,3256,1125,2874,3177,1133,1028,1006,848,1313,2702,29078,29100,2147483647,64628,5,352,648,9308,403,52074,3,3,3,2
go to fist,13:15:06.507,29228,7439,3256,1256,936,1252,742,1898,1283,764,773,1946,2645,28986,28845,29364,29311,28823,1467,1265,3225,1160,2860,3194,1107,1050,1045,861,1300,2720,29135,29170,2147483647,64601,7,354,642,9316,400,52080,3,3,3,2
go to fist,13:15:06.522,29091,7457,3278,1278,944,1243,777,1858,1331,755,755,1920,2619,28924,28700,29166,29153,28845,1511,1239,3247,1146,2882,3181,1094,1072,1010,834,1243,2680,29078,29096,2147483647,64625,65534,360,635,9312,405,52076,3,3,3,2
go to fist,13:15:06.707,29170,7413,3287,1287,909,1270,782,1876,1287,742,791,1902,2619,28951,28937,29307,29346,28766,1538,1217,3225,1155,2909,3181,1094,1045,993,830,1283,2693,29201,29157,2147483647,64610,4,359,639,9321,419,52083,3,3,3,2
go to fist,13:15:06.807,29109,7426,3282,1313,931,1195,782,1880,1309,751,742,1924,2623,28946,28722,29250,29197,29021,1485,1256,3238,1129,2878,3164,1111,1081,1001,830,1287,2729,29078,29113,2147483647,64612,23,337,641,9317,418,52081,3,3,3,2
go to fist,13:15:06.907,29047,7457,3322,1313,984,1221,755,1889,1331,777,777,1951,2627,28986,28792,29333,29359,28819,1498,1274,3291,1146,2887,3172,1138,1028,1006,821,1283,2737,29030,29078,2147483647,64623,65526,350,632,9332,423,52091,3,3,3,2
go to fist,13:15:07.007,29166,7431,3309,1287,931,1248,804,1911,1305,738,751,1968,2614,28885,28880,29254,29276,28911,1529,1261,3247,1155,2874,3164,1125,1059,1006,856,1248,2693,29043,29166,2147483647,64631,11,342,620,9337,435,52094,3,3,3,2
go to fist,13:15:07.107,29131,7413,3278,1278,958,1239,799,1894,1248,782,777,1946,2654,28973,28823,29351,29346,28863,1498,1261,3256,1133,2825,3164,1107,1085,966,878,1283,2685,28986,29113,2147483647,64601,65532,316,613,9352,452,52105,3,3,3,2
go to fist,13:15:07.207,29148,7413,3282,1278,953,1230,812,1894,1322,760,799,1959,2614,28889,28889,29285,29258,28753,1494,1226,3225,1164,2856,3172,1133,1063,984,843,1300,2680,28995,29162,2147483647,64623,65532,348,624,9353,459,52106,3,3,3,2
go to fist,13:15:07.307,29061,7453,3322,1261,940,1226,782,1916,1309,760,764,1929,2614,28929,28775,29148,29192,28885,1476,1283,3216,1168,2852,3164,1129,1067,1032,852,1318,2715,28902,29096,2147483647,64616,5,328,626,9375,476,52122,3,3,3,2
go to fist,13:15:07.407,29157,7475,3370,1322,962,1270,769,1924,1340,760,755,1981,2645,28955,28999,29293,29254,28946,1489,1252,3238,1182,2913,3159,1085,1072,962,852,1309,2685,28920,29175,2147483647,64627,1,334,635,9398,482,52139,3,3,3,2
go to fist,13:15:07.517,29096,7497,3396,1287,988,1270,795,1916,1318,773,769,1999,2693,28858,28814,29206,29302,28823,1502,1243,3247,1076,2926,3164,1138,1067,1028,839,1270,2693,28885,29034,2147483647,64619,65524,349,652,9415,487,52152,3,3,3,2
go to fist,13:15:07.607,29293,7567,3379,1248,962,1217,773,1937,1287,733,742,1933,2680,29074,29021,29113,29047,29065,1480,1230,3229,1142,2917,3168,1107,1063,1001,830,1278,2755,28661,29263,2147483647,64602,5,320,667,9437,494,52168,3,3,3,2
go to fist,13:15:07.708,29157,7523,3418,1287,940,1283,782,1920,1287,799,804,1946,2685,28911,28775,29276,29276,28995,1489,1234,3247,1155,2878,3181,1129,1103,1001,826,1256,2715,28937,29118,2147483647,64604,0,315,677,9441,495,52172,3,3,3,2
go to fist,13:15:07.807,29188,7514,3344,1274,962,1243,782,1907,1287,769,729,1977,2724,28898,28907,29131,29153,28850,1485,1252,3229,1151,2891,3142,1107,1076,988,834,1318,2729,28784,29140,2147483647,64605,6,357,685,9451,500,52180,3,3,3,2
go to fist,13:15:07.907,29021,7492,3401,1278,966,1221,777,1924,1265,729,786,1973,2702,28858,28929,29214,29223,28801,1494,1243,3212,1129,2887,3190,1138,1059,993,839,1300,2720,28999,29083,2147483647,64622,65525,327,692,9455,494,52183,3,3,3,2
go to fist,13:15:08.007,29206,7567,3379,1291,975,1204,795,1924,1340,742,760,2017,2724,28995,28832,29236,29245,28863,1480,1248,3216,1107,2935,3168,1107,1063,988,839,1252,2733,29008,29157,2147483647,64614,9,329,697,9496,501,52212,3,3,3,2
go to fist,13:15:08.107,29043,7620,3555,1278,975,1256,812,1929,1278,751,742,1995,2746,28920,28999,29280,29289,28784,1489,1265,3234,1129,2957,3181,1103,1059,1015,878,1305,2733,29025,29122,2147483647,64621,65526,343,704,9513,505,52225,3,3,3,2
go to fist,13:15:08.207,29135,7598,3541,1291,949,1243,795,1933,1274,733,725,2003,2746,28946,29061,29364,29390,29113,1516,1248,3225,1146,2878,3142,1094,1089,1006,839,1287,2742,29017,29118,2147483647,64612,1,323,710,9534,504,52240,3,3,3,2
go to fist,13:15:08.307,29201,7584,3506,1318,966,1212,769,1920,1278,755,786,1968,2733,28858,29017,29276,29342,28986,1511,1217,3260,1116,2856,3164,1120,1063,1006,852,1270,2755,29061,29197,2147483647,64616,0,327,714,9546,514,52249,3,3,3,2
go to fist,13:15:08.407,29109,7567,3449,1221,988,1212,777,1959,1256,764,747,1986,2737,28986,29030,29359,29364,29047,1498,1256,3208,1133,2895,3124,1120,1072,979,843,1283,2720,28973,29065,2147483647,64596,65535,315,717,9575,516,52270,3,3,3,2
go to fist,13:15:08.507,29144,7589,3454,1278,962,1221,742,1968,1261,773,733,1959,2768,28845,28981,29267,29250,28990,1498,1274,3225,1111,2887,3106,1103,1063,1001,874,1305,2746,29017,29140,2147483647,64581,65529,307,714,9571,523,52268,3,3,3,2
go to fist,13:15:08.608,29104,7593,3445,1252,958,1195,764,1964,1300,747,777,2003,2759,28959,29025,29148,29228,29043,1480,1230,3194,1116,2860,3120,1107,1072,1023,826,1305,2711,28885,29091,2147483647,64629,0,322,708,9585,525,52278,3,3,3,2
go to fist,13:15:08.717,29166,7554,3432,1248,927,1283,773,1933,1291,729,782,1951,2746,28898,29012,29170,29201,29017,1507,1234,3212,1146,2882,3124,1111,1125,1023,852,1283,2711,28981,29153,2147483647,64608,65531,315,711,9596,532,52286,3,3,3,2
go to fist,13:15:08.817,29096,7492,3476,1296,979,1239,799,1946,1248,755,777,1973,2715,29188,29148,29039,29100,29223,1507,1234,3221,1146,2874,3128,1138,1063,988,856,1309,2702,28810,29043,2147483647,64612,65533,322,716,9597,541,52287,3,3,3,2
go to fist,13:15:08.907,29135,7541,3405,1265,975,1291,742,1990,1296,747,777,1977,2772,29157,29197,29192,29197,29179,1511,1261,3229,1133,2856,3164,1107,1103,971,834,1318,2746,28735,29175,2147483647,64622,65526,312,730,9606,547,52295,3,3,3,2
go to fist,13:15:09.007,29192,7541,3445,1287,984,1256,777,1946,1300,764,777,1968,2772,28937,28999,29179,29135,29017,1498,1243,3243,1155,2843,3150,1111,1089,1037,848,1327,2715,28885,29153,2147483647,64596,65525,330,737,9624,556,52309,3,3,3,2
go to fist,13:15:09.107,29210,7514,3423,1278,1001,1252,760,1880,1300,738,791,1955,2720,28959,29065,29250,29241,29091,1498,1226,3208,1142,2895,3155,1111,1076,988,861,1349,2733,28990,29131,2147483647,64604,1,333,738,9644,555,52324,3,3,3,2
go to fist,13:15:09.122,29083,7514,3392,1270,1010,1230,720,1955,1291,764,733,1959,2764,28916,29012,29113,29144,28999,1502,1283,3199,1129,2882,3177,1120,1094,988,865,1274,2724,28937,29074,2147483647,64598,65512,321,744,9673,577,52346,3,3,3,2
go to fist,13:15:09.307,29170,7514,3366,1283,997,1278,755,1973,1296,733,764,1959,2759,28986,29100,29192,29219,29074,1489,1252,3273,1107,2904,3177,1076,1076,1019,852,1296,2685,29061,29184,2147483647,64607,0,308,750,9695,595,52363,3,3,3,2
go to fist,13:15:09.407,29113,7488,3379,1270,1037,1265,791,1977,1322,764,760,1916,2768,28880,29034,29122,29144,29012,1472,1212,3208,1120,2874,3177,1103,1098,984,812,1300,2724,28959,29074,2147483647,64584,2,267,757,9725,594,52386,3,3,3,2
go to fist,13:15:09.507,29118,7536,3414,1274,1001,1265,769,1955,1287,747,755,1959,2777,28964,29069,29184,29232,29100,1520,1265,3229,1151,2913,3203,1142,1081,1015,856,1322,2729,28981,29192,2147483647,64568,65534,239,767,9782,598,52429,3,3,3,2
go to fist,13:15:09.607,29122,7457,3353,1270,984,1230,755,1942,1300,751,769,1959,2772,28968,29017,29118,29135,29061,1494,1243,3172,1155,2865,3168,1111,1076,988,896,1287,2707,28916,29069,2147483647,64608,16,276,770,9776,605,52424,3,3,3,2
go to fist,13:15:09.707,29135,7497,3331,1239,975,1278,769,1973,1278,733,791,1951,2733,28920,29083,29091,29166,29087,1494,1243,3243,1133,2869,3164,1133,1103,1010,839,1287,2689,28973,29122,2147483647,64610,10,261,777,9785,623,52433,3,3,3,2
go to fist,13:15:09.807,29091,7584,3454,1296,1023,1270,760,1981,1274,716,786,2008,2750,28894,28990,28766,28806,28981,1480,1248,3238,1151,2904,3168,1151,1072,1028,852,1261,2746,28920,29052,2147483647,64632,65517,328,792,9805,662,52450,3,3,3,2
go to fist,13:15:09.907,29091,7492,3401,1305,984,1234,716,1986,1270,733,764,1955,2759,28955,29030,28951,28828,29069,1498,1274,3256,1151,2900,3142,1116,1076,1015,861,1300,2729,28920,29113,2147483647,64605,65525,329,810,9808,676,52455,3,3,3,2
go to fist,13:15:10.008,29188,7549,3423,1270,979,1243,747,1995,1300,738,777,1933,2777,28894,29034,28828,28814,29003,1507,1278,3229,1142,2874,3111,1111,1059,1006,852,1305,2689,28942,29140,2147483647,64593,65508,271,831,9834,697,52476,3,3,3,2
wait in fist,13:15:10.107,29126,7571,3467,1261,988,1195,777,2034,1318,755,729,1951,2781,28929,28986,29008,28894,29021,1489,1274,3265,1125,2878,3120,1129,1063,1001,865,1296,2711,28990,29113,2147483647,64584,65500,281,861,9852,711,52493,3,3,3,2
wait in fist,13:15:10.207,29153,7527,3383,1322,993,1287,764,2008,1261,742,786,1959,2750,28973,28959,28863,28854,28959,1520,1283,3247,1146,2926,3106,1107,1063,1006,878,1300,2724,28999,29113,2147483647,64542,65523,276,886,9874,721,52512,3,3,3,2
wait in fist,13:15:10.307,29069,7501,3366,1309,1001,1234,782,2039,1265,747,751,1968,2755,28946,28889,28955,28823,28959,1476,1256,3203,1120,2904,3115,1103,1094,993,856,1283,2729,28911,29061,2147483647,64592,5,265,889,9888,736,52524,3,3,3,2
wait in fist,13:15:10.407,29276,7453,3317,1248,1001,1239,738,2052,1265,711,760,1937,2750,29012,28968,28801,28854,28933,1494,1221,3273,1146,2904,3120,1111,1116,1037,843,1305,2742,29109,29236,2147483647,64590,65514,320,895,9876,756,52516,3,3,3,2
wait in fist,13:15:10.507,29258,7461,3251,1261,984,1221,769,2065,1291,751,769,2021,2746,28872,28894,28977,28801,28955,1480,1248,3269,1116,2904,3120,1098,1063,1010,826,1296,2693,29021,29210,2147483647,64568,65514,295,907,9887,790,52527,3,3,3,2
wait in fist,13:15:10.522,29197,7457,3313,1313,1010,1221,738,2047,1261,755,782,1946,2759,28986,28955,28806,28867,28977,1494,1239,3221,1146,2887,3137,1111,1098,993,856,1309,2720,29008,29175,2147483647,64592,65517,252,908,9876,799,52519,3,3,3,2
wait in fist,13:15:10.707,29043,7435,3282,1287,1032,1270,769,2100,1322,764,742,1942,2759,28920,28801,28797,28779,28854,1480,1239,3251,1098,2939,3146,1120,1089,971,834,1313,2759,29021,29052,2147483647,64606,65529,279,902,9867,805,52513,3,3,3,2
wait in fist,13:15:10.807,29307,7352,3287,1208,1032,1261,764,2017,1239,747,751,1964,2755,28907,28937,28806,28867,28986,1441,1212,3269,1133,2895,3115,1138,1059,975,878,1305,2777,29096,29254,2147483647,64583,65514,276,905,9875,818,52520,3,3,3,2
wait in fist,13:15:10.907,29109,7374,3265,1270,962,1270,760,2047,1265,786,764,1986,2759,28885,28889,28955,28806,28911,1498,1261,3229,1160,2900,3106,1120,1089,1037,892,1291,2707,28951,29096,2147483647,64577,65523,257,916,9867,811,52514,3,3,3,2
wait in fist,13:15:11.007,29162,7378,3229,1278,993,1252,773,2056,1291,742,786,1973,2750,28937,28929,28836,28955,28951,1467,1248,3225,1155,2944,3084,1098,1111,1019,817,1278,2733,28964,29118,2147483647,64582,10,261,927,9867,818,52515,3,3,3,2
wait in fist,13:15:11.107,29166,7347,3238,1256,975,1270,755,2074,1256,782,760,1955,2715,28845,28898,28749,28749,28889,1480,1278,3221,1133,2865,3062,1085,1085,1037,856,1313,2707,28933,29056,2147483647,64595,65518,237,927,9868,836,52517,3,3,3,2
wait in fist,13:15:11.123,29100,7360,3203,1278,984,1274,777,2047,1261,738,764,1929,2777,28933,28920,28968,28845,28981,1507,1212,3212,1138,2909,3058,1067,1098,1001,856,1327,2707,29043,29083,2147483647,64629,65521,296,915,9870,853,52518,3,3,3,2
wait in fist,13:15:11.308,29179,7360,3208,1287,1006,1256,773,2061,1274,747,760,1894,2737,28854,28876,28678,28722,28889,1489,1208,3265,1116,2935,3120,1076,1094,1028,865,1287,2707,28999,29157,2147483647,64578,65516,260,916,9908,863,52548,3,3,3,2
wait in fist,13:15:11.408,29100,7334,3199,1248,997,1256,755,2025,1248,716,773,1889,2729,28946,28973,29065,28845,28929,1498,1243,3243,1098,2895,3067,1098,1037,984,821,1309,2702,28876,29074,2147483647,64564,65503,269,937,9909,876,52551,3,3,3,2
wait in fist,13:15:11.508,29245,7321,3177,1243,1041,1226,755,2034,1287,729,769,1951,2746,28911,28968,28749,28845,28894,1476,1248,3164,1164,2895,3041,1129,1072,1010,896,1322,2707,29118,29241,2147483647,64570,65514,272,940,9909,890,52552,3,3,3,2
wait in fist,13:15:11.608,29210,7255,3150,1270,979,1265,773,2074,1261,703,764,1937,2742,28959,28924,28705,28792,28937,1485,1230,3159,1146,2917,3045,1098,1072,984,865,1278,2702,29012,29144,2147483647,64589,65506,250,930,9919,905,52560,3,3,3,2
wait in fist,13:15:11.622,29188,7325,3186,1287,1023,1265,773,2069,1270,747,782,1977,2781,28995,28999,28916,28863,28951,1485,1265,3234,1138,2904,3080,1094,1098,1032,852,1248,2702,28955,29210,2147483647,64589,65515,261,915,9910,913,52553,3,3,3,2
wait in fist,13:15:11.723,29126,7290,3181,1265,1019,1261,755,2039,1283,755,769,1981,2733,28924,28894,28832,29003,28858,1502,1212,3221,1129,2909,3102,1138,1103,1001,870,1309,2680,28889,29083,2147483647,64583,65525,237,910,9930,921,52568,3,3,3,2
wait in fist,13:15:11.907,29065,7277,3190,1287,962,1252,751,2034,1265,751,764,1916,2746,28929,28933,28977,28924,28973,1476,1230,3287,1142,2935,3076,1067,1063,1001,887,1274,2676,29043,29175,2147483647,64612,65510,247,911,9921,933,52562,3,3,3,2
wait in fist,13:15:12.007,28990,7281,3128,1287,1006,1274,773,2039,1256,711,804,1924,2777,28995,28924,28766,28775,28863,1498,1217,3234,1160,2891,3093,1120,1081,1028,865,1261,2733,28964,28986,2147483647,64615,65529,247,904,9937,942,52575,3,3,3,2
wait in fist,13:15:12.107,29039,7286,3137,1278,979,1256,742,2056,1248,751,777,1986,2742,29056,28911,28872,28832,28955,1489,1212,3243,1199,2931,3049,1103,1050,1032,852,1283,2720,28990,29083,2147483647,64579,65519,246,905,9960,949,52594,3,3,3,2
wait in fist,13:15:12.122,28990,7316,3106,1248,1001,1248,760,2030,1252,694,755,1955,2733,28867,28858,28669,28775,28854,1454,1248,3269,1155,2900,3062,1054,1041,979,883,1283,2733,28942,28968,2147483647,64621,65516,287,900,9947,945,52583,3,3,3,2
wait in fist,13:15:12.307,29056,7259,3137,1274,988,1278,738,2056,1252,738,777,1920,2764,29109,28937,28828,28792,28898,1476,1261,3291,1160,2909,3058,1098,1116,975,870,1283,2693,28990,28999,2147483647,64588,65517,256,898,9971,963,52602,3,3,3,2
wait in fist,13:15:12.408,29017,7272,3076,1265,1023,1252,725,2069,1318,711,826,1942,2750,28990,28898,28828,28876,28854,1467,1195,3269,1129,2887,3076,1125,1081,1006,852,1318,2711,28929,28977,2147483647,64596,65513,265,883,9959,965,52592,3,3,3,2
wait in fist,13:15:12.508,29074,7229,3106,1256,1032,1239,711,2074,1256,711,795,1929,2724,29008,28929,28845,28814,28951,1463,1252,3238,1142,2935,3049,1085,1072,1001,830,1300,2663,29061,29087,2147483647,64562,65486,283,880,9936,969,52575,3,3,3,2
wait in fist,13:15:12.522,29065,7264,3159,1265,1006,1234,791,2012,1256,742,747,1946,2707,28981,28880,28964,28788,28858,1520,1265,3234,1160,2931,3098,1111,1107,1037,874,1318,2676,29052,28995,2147483647,64571,65491,266,876,9926,981,52568,3,3,3,2
wait in fist,13:15:12.622,28995,7308,3155,1234,1023,1230,725,2047,1239,755,764,1920,2755,28951,28929,28823,28858,28964,1489,1243,3208,1133,2935,3093,1111,1063,979,834,1296,2707,29047,28968,2147483647,64571,65506,260,877,9929,984,52570,3,3,3,2
wait in fist,13:15:12.807,29210,7308,3168,1270,1015,1256,751,2021,1261,755,747,1933,2698,28880,28898,28885,28902,28898,1485,1230,3260,1138,2966,3120,1089,1098,1023,878,1300,2707,29109,29184,2147483647,64559,65482,258,883,9925,981,52567,3,3,3,2
wait in fist,13:15:12.822,28999,7290,3177,1248,979,1243,755,2061,1252,738,747,1885,2750,28973,28902,28753,28902,28933,1498,1195,3229,1142,2891,3102,1125,1098,997,874,1270,2636,28951,28951,2147483647,64574,65497,252,881,9926,978,52568,3,3,3,2
wait in fist,13:15:13.017,29052,7325,3102,1278,1028,1217,760,2078,1239,725,777,1911,2772,28981,28872,28784,28740,28885,1498,1256,3256,1146,2948,3062,1116,1041,1032,887,1291,2676,28973,29017,2147483647,64584,65507,246,880,9928,986,52570,3,3,3,2
wait in fist,13:15:13.107,28612,7277,3111,1239,1001,1252,760,2096,1230,755,729,1929,2808,29184,29034,29131,29135,29065,1489,1261,3247,1155,2931,3071,1067,1081,1010,856,1305,2671,28929,28718,2147483647,64599,65498,263,881,9920,992,52564,3,3,3,2
wait in fist,13:15:13.207,29078,7303,3142,1270,1001,1261,742,2074,1274,738,773,1902,2711,28986,28955,29118,28937,28933,1467,1234,3282,1164,2860,3062,1138,1067,988,861,1296,2676,29025,29113,2147483647,64584,65511,266,885,9910,997,52557,3,3,3,2
wait in fist,13:15:13.223,29021,7242,3093,1296,1006,1278,791,2056,1270,720,751,1977,2772,28894,28854,29017,29021,28885,1476,1234,3216,1116,2917,3049,1111,1063,1023,852,1300,2693,28889,28964,2147483647,64578,65510,277,885,9915,1001,52561,3,3,3,2
wait in fist,13:15:13.407,28792,7233,3159,1274,1010,1234,760,1995,1261,716,764,1920,2777,29214,29096,29206,29206,29104,1472,1256,3335,1160,2904,3067,1129,1085,1001,883,1300,2715,28924,28696,2147483647,64589,65488,280,892,9909,1018,52558,3,3,3,2
wait in fist,13:15:13.507,28999,7299,3168,1274,1019,1300,755,2056,1278,742,786,1964,2772,29131,28880,29091,29056,28850,1472,1278,3291,1151,2948,3054,1133,1072,1006,874,1305,2676,28986,28986,2147483647,64588,65504,280,895,9917,1029,52565,3,3,3,2
wait in fist,13:15:13.608,29157,7277,3128,1270,1015,1278,747,2021,1243,729,751,1942,2715,29096,28933,29078,29087,28942,1511,1230,3269,1142,2904,3041,1125,1081,1054,865,1274,2698,29061,29122,2147483647,64563,65510,250,904,9927,1026,52574,3,3,3,2
wait in fist,13:15:13.707,29109,7246,3106,1278,1019,1239,738,2065,1261,738,733,1933,2764,29078,28902,29025,29003,28889,1498,1274,3273,1111,2887,3019,1089,1085,988,834,1305,2676,28920,29074,2147483647,64581,65490,253,899,9921,1029,52569,3,3,3,2
wait in fist,13:15:13.807,29109,7242,3120,1265,1001,1274,738,2039,1287,747,764,1898,2693,29153,28907,29113,29061,28937,1494,1234,3238,1125,2891,3049,1094,1045,1037,839,1340,2671,28995,29034,2147483647,64596,65513,249,896,9919,1029,52567,3,3,3,2
wait in fist,13:15:13.907,29021,7281,3133,1296,1015,1274,782,2122,1278,725,764,1929,2742,29039,28858,29017,28973,28858,1533,1261,3326,1151,2917,3089,1116,1037,1041,826,1300,2693,28937,28981,2147483647,64587,65509,226,895,9928,1047,52576,3,3,3,2
wait in fist,13:15:14.007,28959,7277,3150,1283,988,1265,773,2043,1261,742,786,1942,2759,29104,28942,29104,29104,28981,1480,1256,3269,1151,2909,3049,1107,1037,1032,874,1278,2702,28990,29017,2147483647,64592,65489,258,879,9930,1044,52575,3,3,3,2
wait in fist,13:15:14.107,29091,7272,3120,1296,1006,1217,751,2074,1274,703,755,1951,2772,28990,28880,29021,29056,28872,1476,1243,3251,1133,2887,3036,1094,1054,1041,834,1296,2746,28964,29078,2147483647,64605,65499,259,869,9928,1037,52573,3,3,3,2
wait in fist,13:15:14.123,28995,7277,3120,1239,1010,1256,751,2056,1256,755,760,1933,2742,29074,28973,29043,29052,28959,1485,1230,3265,1120,2891,3076,1120,1098,1015,848,1278,2693,28964,28999,2147483647,64575,65510,234,856,9939,1037,52581,3,3,3,2
wait in fist,13:15:14.307,29061,7250,3128,1335,993,1221,751,2025,1287,720,747,1946,2746,29122,28955,29074,29056,28889,1494,1261,3309,1168,2887,3023,1089,1085,1032,883,1274,2689,29162,29030,2147483647,64596,65502,249,850,9944,1055,52587,3,3,3,2
wait in fist,13:15:14.407,29113,7180,3128,1261,979,1274,755,2047,1243,720,755,1933,2755,29034,28872,28973,28995,28955,1480,1239,3256,1155,2904,3049,1098,1067,1001,839,1296,2680,28898,29056,2147483647,64617,65511,257,847,9941,1059,52583,3,3,3,2
wait in fist,13:15:14.507,29025,7233,3067,1283,1037,1270,755,2078,1300,742,742,1937,2733,29052,28937,29091,29096,28981,1467,1243,3225,1103,2891,3071,1125,1107,997,856,1274,2689,29096,29043,2147483647,64602,65487,274,847,9947,1066,52589,3,3,3,2
wait in fist,13:15:14.607,28973,7255,3076,1256,1045,1270,755,2074,1256,703,773,1937,2742,28990,28858,29021,29043,28916,1472,1270,3229,1129,2922,3041,1116,1063,997,848,1261,2649,29043,28933,2147483647,64576,65495,260,839,9950,1078,52591,3,3,3,2
wait in fist,13:15:14.622,29069,7250,3071,1274,971,1239,777,2047,1270,738,764,1889,2733,29061,28977,29065,29096,28955,1463,1226,3221,1138,2904,3010,1085,1059,979,883,1291,2689,28951,29025,2147483647,64574,65472,268,833,9952,1097,52594,3,3,3,2
wait in fist,13:15:14.807,29140,7237,3120,1305,966,1278,760,2043,1278,751,738,1920,2750,29003,28854,29003,29017,28916,1494,1256,3225,1111,2887,3023,1107,1063,1010,892,1291,2729,28933,29074,2147483647,64574,65487,265,835,9950,1102,52593,3,3,3,2
wait in fist,13:15:14.907,29069,7237,3071,1252,993,1265,707,2087,1256,725,769,1916,2742,29083,28880,29065,29096,29012,1480,1208,3247,1129,2874,3027,1125,1085,1015,852,1300,2645,29184,29087,2147483647,64568,65481,254,842,9962,1108,52604,3,3,3,2
wait in fist,13:15:15.007,28986,7211,3106,1248,993,1239,755,2043,1296,725,764,1907,2729,28986,28889,29021,29017,28894,1507,1252,3269,1111,2874,3032,1125,1041,1028,830,1296,2689,29056,29025,2147483647,64572,65467,274,843,9959,1117,52601,3,3,3,2
fist to thumbs,13:15:15.107,29065,7246,3054,1226,1001,1243,769,2021,1261,733,755,1946,2768,29025,28959,29091,29078,28959,1480,1256,3243,1129,2887,3062,1098,1050,975,812,1270,2693,29003,29017,2147483647,64560,65490,264,840,9976,1106,52614,3,3,3,2
fist to thumbs,13:15:15.122,29012,7242,3027,1291,1023,1256,769,2043,1252,738,716,1942,2724,28973,28911,29034,29052,28907,1423,1226,3278,1138,2878,3067,1089,1072,971,865,1313,2685,28977,28968,2147483647,64555,65480,250,838,9985,1090,52619,3,3,3,2
fist to thumbs,13:15:15.307,29052,7237,3102,1252,984,1217,707,2043,1261,773,760,1929,2750,29188,28951,29074,29135,28959,1472,1278,3221,1125,2891,3036,1076,1072,1041,856,1252,2663,28990,29069,2147483647,64581,65481,255,833,9973,1102,52609,3,3,3,2
fist to thumbs,13:15:15.407,29126,7224,3067,1270,1028,1274,733,2069,1226,703,738,1894,2768,29126,28863,28959,28981,28933,1467,1274,3243,1103,2882,3036,1094,1059,1010,834,1287,2667,28990,29118,2147483647,64591,65502,247,834,9972,1104,52610,3,3,3,2
fist to thumbs,13:15:15.508,29109,7215,3045,1305,1028,1234,733,2039,1243,764,742,1968,2764,29056,28955,29043,29065,29012,1538,1256,3247,1120,2843,3045,1076,1050,988,865,1243,2663,28959,29096,2147483647,64592,65480,260,842,9970,1106,52609,3,3,3,2
fist to thumbs,13:15:15.523,29162,7185,3010,1265,1023,1291,738,2061,1239,720,755,1924,2737,29126,28929,29061,29065,28916,1494,1230,3265,1116,2895,3027,1098,1067,1006,874,1274,2698,28946,29135,2147483647,64577,65488,264,845,9963,1110,52608,3,3,3,2
fist to thumbs,13:15:15.707,29056,7193,3093,1256,1010,1274,760,2061,1243,733,725,1911,2750,29113,28968,29056,29074,29017,1476,1283,3287,1146,2843,2975,1094,1067,1010,874,1291,2711,28920,29008,2147483647,64572,65496,236,846,9974,1111,52613,3,3,3,2
fist to thumbs,13:15:15.807,29091,7215,3041,1283,979,1243,764,2047,1173,720,755,1889,2746,28973,28880,29039,29008,28858,1476,1212,3265,1125,2860,3005,1089,1037,1015,839,1265,2698,29017,29039,2147483647,64574,65497,236,845,9970,1091,52608,3,3,3,2
fist to thumbs,13:15:15.907,28977,7202,3010,1305,1028,1248,733,2047,1261,733,747,1924,2768,29175,28951,28990,29083,28946,1463,1243,3212,1125,2874,3019,1072,1094,1028,874,1309,2658,28911,28959,2147483647,64590,65496,270,846,9972,1083,52609,3,3,3,2
fist to thumbs,13:15:16.007,29021,7154,3045,1256,1019,1256,760,2039,1243,733,725,1937,2755,29148,28924,28981,29008,28942,1467,1265,3225,1151,2874,3010,1089,1054,1015,821,1291,2707,28920,28968,2147483647,64576,65497,244,852,9976,1078,52612,3,3,3,2
fist to thumbs,13:15:16.107,28959,7180,3027,1248,1023,1256,720,2030,1226,742,729,1902,2786,28964,28845,28999,29012,28894,1467,1252,3243,1138,2869,3032,1151,1032,984,821,1313,2693,28898,28942,2147483647,64591,65480,250,855,9976,1086,52613,3,3,3,2
fist to thumbs,13:15:16.207,29047,7211,3032,1256,1001,1226,711,2043,1234,742,764,1937,2759,29148,28951,29056,29069,28916,1485,1252,3265,1133,2878,3014,1067,1076,940,848,1318,2685,28990,29083,2147483647,64597,65495,256,855,9983,1085,52618,3,3,3,2
fist to thumbs,13:15:16.307,28986,7171,3001,1230,993,1274,755,2034,1234,716,760,1911,2729,29157,28872,28981,29025,28863,1507,1212,3282,1072,2891,3032,1072,1054,971,852,1296,2645,28968,28981,2147483647,64570,65489,241,859,9994,1079,52626,3,3,3,2
fist to thumbs,13:15:16.408,29179,7198,3014,1270,993,1265,716,2056,1265,725,764,1889,2799,29100,28968,29087,29056,28902,1502,1252,3238,1142,2865,3041,1116,1045,1019,830,1305,2685,29052,29135,2147483647,64584,65494,255,860,9987,1079,52621,3,3,3,2
fist to thumbs,13:15:16.508,29065,7163,3023,1274,1006,1256,764,2056,1234,742,760,1937,2759,28995,28867,28924,28995,28929,1445,1234,3238,1151,2865,3027,1081,1085,1001,852,1278,2693,28964,29109,2147483647,64586,65505,259,854,9985,1086,52620,3,3,3,2
fist to thumbs,13:15:16.608,29179,7189,3098,1261,1019,1221,738,2039,1283,720,733,1933,2799,29078,28911,29074,29091,28916,1476,1270,3256,1089,2856,3023,1063,1067,1001,865,1309,2636,28942,29118,2147483647,64572,65489,233,840,9999,1098,52631,3,3,3,2
fist to thumbs,13:15:16.623,29091,7185,3067,1230,997,1243,707,2056,1248,755,733,1937,2830,29087,28792,28981,28937,28788,1458,1252,3260,1133,2895,3041,1103,1028,984,874,1252,2658,29078,29069,2147483647,64570,65493,243,837,10004,1108,52636,3,3,3,2
fist to thumbs,13:15:16.807,29078,7163,3045,1217,975,1265,733,2030,1261,747,769,1898,2860,29069,28937,29069,29069,28959,1507,1243,3216,1133,2895,3045,1072,1103,958,883,1291,2676,28973,29109,2147483647,64572,65488,259,841,10006,1099,52636,3,3,3,2
fist to thumbs,13:15:16.907,29034,7211,3019,1252,993,1243,725,2043,1296,764,755,1933,2812,28990,28858,28995,29008,28889,1507,1239,3260,1107,2931,2944,1072,1054,1006,878,1274,2654,28986,28999,2147483647,64571,65483,271,838,10004,1115,52636,3,3,3,2
fist to thumbs,13:15:17.007,28995,7220,3054,1243,1001,1221,742,2065,1239,711,786,1898,2852,29012,28916,29065,29056,28986,1428,1190,3273,1160,2900,2961,1054,1054,979,874,1309,2649,29025,28995,2147483647,64567,65498,231,834,10013,1122,52643,3,3,3,2
fist to thumbs,13:15:17.107,29052,7198,3019,1270,1023,1243,729,2083,1221,751,777,1968,2834,28986,28902,28977,28995,28880,1476,1265,3265,1129,2882,3001,1085,1059,1010,830,1278,2671,28995,29030,2147483647,64586,65483,268,854,10011,1111,52642,3,3,3,2
fist to thumbs,13:15:17.208,29065,7167,3062,1261,1006,1270,738,2043,1243,733,773,1959,2847,29184,28955,28981,29052,28920,1520,1226,3238,1133,2874,2970,1098,1028,1001,918,1313,2689,28872,29025,2147483647,64579,65491,263,865,10014,1110,52645,3,3,3,2
fist to thumbs,13:15:17.318,29034,7163,3005,1252,1010,1226,720,2052,1239,707,760,1955,2825,28968,28858,29061,29069,28885,1485,1248,3273,1133,2874,2957,1085,1085,997,861,1283,2676,28981,29034,2147483647,64556,65485,253,874,10012,1109,52644,3,3,3,2
fist to thumbs,13:15:17.407,28709,7202,3080,1261,1019,1261,733,1973,1243,711,742,1920,2834,29280,29162,29166,29250,29236,1485,1265,3251,1111,2904,2975,1094,1063,1006,812,1283,2663,28770,28749,2147483647,64577,65503,223,874,10027,1116,52661,3,3,3,2
fist to thumbs,13:15:17.517,29017,7180,3005,1252,1006,1239,742,2056,1243,738,760,1911,2803,28955,28920,29065,29043,28924,1502,1261,3234,1160,2909,2970,1111,1107,1054,852,1335,2685,29083,29039,2147483647,64582,65493,233,869,10033,1105,52660,3,3,3,2
fist to thumbs,13:15:17.608,28757,7211,3054,1270,1050,1265,716,2043,1248,716,760,1924,2764,29135,28999,29083,29157,29008,1463,1248,3243,1116,2834,3036,1103,1094,984,870,1327,2676,28819,28933,2147483647,64579,65499,250,866,10045,1087,52667,3,3,3,2
fist to thumbs,13:15:17.622,29104,7180,3027,1278,971,1243,769,2043,1226,755,777,1898,2816,29061,29008,29083,29135,28964,1458,1226,3269,1133,2891,2983,1116,1067,1006,870,1283,2693,29087,29043,2147483647,64581,65457,246,861,10057,1073,52675,3,3,3,2
fist to thumbs,13:15:17.808,29056,7176,3005,1204,1010,1248,751,2052,1261,703,755,1959,2808,29025,28977,29122,29135,29039,1467,1243,3295,1081,2909,2975,1094,1054,1010,865,1305,2715,28911,29074,2147483647,64542,65504,230,848,10078,1061,52692,3,3,3,2
fist to thumbs,13:15:17.908,29074,7215,2997,1252,1001,1248,755,2065,1256,729,720,1920,2808,29078,28973,29039,29078,28981,1498,1243,3212,1142,2904,3001,1098,1111,1010,909,1300,2667,29074,29043,2147483647,64563,65484,229,846,10065,1077,52681,3,3,3,2
fist to thumbs,13:15:18.008,28951,7180,2997,1256,1023,1226,725,2056,1261,738,755,1916,2816,29061,28937,28999,29008,28885,1489,1190,3229,1129,2926,2979,1081,1063,1037,856,1313,2658,28876,28929,2147483647,64585,65479,246,852,10039,1104,52663,3,3,3,2
fist to thumbs,13:15:18.108,29030,7202,3045,1261,993,1261,747,2047,1226,707,791,1933,2860,29201,28929,29039,29078,28977,1485,1234,3278,1138,2887,3010,1094,1089,1015,843,1313,2667,28977,29052,2147483647,64556,65496,268,860,10016,1114,52647,3,3,3,2
fist to thumbs,13:15:18.207,28990,7215,3023,1248,988,1270,769,2047,1230,725,755,1937,2843,29021,28898,28955,29061,28907,1476,1291,3243,1111,2891,3005,1072,1076,1010,848,1278,2680,29118,28995,2147483647,64572,65480,240,835,9998,1104,52631,3,3,3,2
fist to thumbs,13:15:18.307,28977,7237,3049,1270,993,1287,782,2074,1274,742,742,1885,2852,29126,29039,28990,29008,28964,1511,1239,3203,1120,2913,2966,1116,1076,1028,852,1296,2698,29104,29003,2147483647,64596,65495,247,795,9992,1089,52622,3,3,3,2
fist to thumbs,13:15:18.322,29083,7189,3058,1248,1037,1252,738,2061,1256,742,782,1911,2874,29061,28876,28911,28937,28955,1463,1261,3243,1116,2895,3001,1116,1063,997,861,1283,2649,29131,28977,2147483647,64588,65500,223,771,10005,1069,52628,3,3,3,2
fist to thumbs,13:15:18.508,28964,7180,3045,1261,1019,1283,725,2065,1278,742,738,1929,2856,29153,29100,28942,28990,29087,1458,1256,3234,1116,2878,2966,1067,1081,997,861,1313,2658,28863,28770,2147483647,64595,65483,249,770,10016,1074,52639,3,3,3,2
fist to thumbs,13:15:18.608,29065,7171,3010,1243,1001,1265,764,2074,1270,742,742,1889,2887,29034,28920,28937,28885,28920,1494,1256,3181,1129,2891,3001,1076,1045,979,843,1322,2685,29083,29039,2147483647,64587,65491,270,774,10025,1096,52647,3,3,3,2
fist to thumbs,13:15:18.621,28929,7185,3067,1270,1063,1252,733,2091,1239,733,733,1876,2852,29126,28920,28889,28929,28907,1485,1239,3278,1125,2909,3005,1103,1041,1028,883,1305,2680,29144,29017,2147483647,64545,65480,244,774,10026,1119,52649,3,3,3,2
fist to thumbs,13:15:18.808,29096,7171,3023,1243,979,1256,729,2047,1261,729,742,1898,2799,29192,28973,28951,28942,28959,1485,1261,3216,1125,2900,2966,1081,1089,1019,896,1300,2671,29091,29074,2147483647,64556,65469,256,757,10034,1127,52655,3,3,3,2
fist to thumbs,13:15:18.907,28955,7193,3014,1256,1028,1261,725,2039,1270,747,769,1902,2887,29166,28902,28872,28902,28907,1489,1234,3269,1111,2891,2979,1111,1059,1032,843,1274,2685,29096,28955,2147483647,64574,65462,255,731,10032,1136,52653,3,3,3,2
fist to thumbs,13:15:19.007,29043,7136,3036,1239,1019,1261,751,2043,1239,725,733,1894,2843,29219,28968,28937,28942,28955,1472,1270,3269,1151,2887,2979,1107,1063,997,870,1278,2671,29104,29021,2147483647,64560,65465,261,704,10040,1147,52659,3,3,3,2
fist to thumbs,13:15:19.107,28981,7202,3067,1256,1001,1252,760,2052,1283,703,760,1916,2852,29162,28995,28885,28907,28911,1476,1212,3221,1116,2856,3045,1094,1067,1001,856,1335,2689,29061,29003,2147483647,64573,65471,259,690,10053,1156,52669,3,3,3,2
fist to thumbs,13:15:19.207,29056,7154,3005,1252,1032,1278,733,2030,1274,707,764,1924,2887,29214,28951,28968,29003,28959,1533,1300,3229,1151,2922,2979,1094,1067,1023,883,1283,2715,29065,28999,2147483647,64549,65456,243,677,10072,1168,52685,3,3,3,2
fist to thumbs,13:15:19.308,29012,7141,3067,1230,988,1243,733,2043,1217,747,747,1955,2895,29126,28863,28911,28889,28933,1480,1265,3251,1133,2882,3014,1063,1094,1023,817,1322,2676,29056,28964,2147483647,64596,65439,249,669,10063,1178,52678,3,3,3,2
fist to thumbs,13:15:19.408,29025,7198,3049,1221,1037,1296,738,2078,1243,782,742,1902,2852,29241,28973,28995,29008,28995,1485,1274,3225,1120,2957,2997,1089,1067,1006,870,1265,2680,29157,29056,2147483647,64569,65460,261,680,10077,1183,52690,3,3,3,2
fist to thumbs,13:15:19.508,28964,7189,3080,1261,1041,1265,760,2052,1252,685,725,1889,2869,29166,28977,28889,28911,29017,1502,1265,3265,1116,2948,2957,1098,1041,1023,874,1335,2671,29047,28959,2147483647,64544,65454,228,689,10083,1196,52696,3,3,3,2
fist to thumbs,13:15:19.608,29039,7198,2997,1256,1015,1283,769,2039,1296,733,773,1885,2909,29236,28977,28986,28959,28990,1485,1243,3260,1168,2935,3041,1111,1032,971,861,1353,2689,29087,29034,2147483647,64575,65455,226,693,10094,1177,52704,3,3,3,2
fist to thumbs,13:15:19.708,29126,7207,3014,1265,1019,1261,716,2047,1239,742,782,1898,2874,29192,28937,28880,28872,28942,1472,1248,3234,1151,2922,2979,1094,1041,997,856,1278,2658,29017,29069,2147483647,64595,65468,256,685,10109,1173,52714,3,3,3,2
fist to thumbs,13:15:19.807,29012,7202,3071,1265,997,1230,742,2056,1248,733,738,1916,2882,29201,28929,28968,28924,28955,1502,1256,3265,1146,2922,2975,1120,1050,988,887,1305,2671,29069,28999,2147483647,64570,65476,247,701,10110,1183,52717,3,3,3,2
fist to thumbs,13:15:19.822,29030,7185,3005,1261,988,1278,729,2003,1230,799,764,1867,2874,29122,28880,28872,28898,28894,1489,1252,3243,1103,2939,2997,1138,1041,1023,865,1283,2658,29192,29065,2147483647,64551,65472,254,718,10111,1192,52719,3,3,3,2
fist to thumbs,13:15:20.007,28964,7149,3045,1239,993,1261,720,2047,1248,725,760,1902,2895,29254,28964,28937,29012,28951,1494,1248,3216,1129,2970,2992,1094,1050,966,848,1300,2680,29025,28977,2147483647,64552,65447,256,709,10117,1200,52724,3,3,3,2
rest in thumbs,13:15:20.023,29157,7163,3036,1230,984,1252,747,2043,1261,755,773,1902,2852,29188,28924,28894,28894,28911,1498,1252,3265,1125,2926,2983,1085,1089,1006,865,1261,2698,29100,29170,2147483647,64523,65453,240,698,10119,1203,52725,3,3,3,2
rest in thumbs,13:15:20.207,28964,7242,3080,1270,1032,1278,760,2056,1212,729,773,1911,2838,29170,28959,28929,28968,29078,1494,1256,3243,1164,2904,3014,1076,1037,988,856,1296,2680,29017,28964,2147483647,64587,65477,223,691,10104,1187,52712,3,3,3,2
rest in thumbs,13:15:20.308,29241,7224,3054,1261,988,1270,786,2052,1256,707,769,1898,2900,29166,29065,28885,28911,29074,1463,1208,3251,1142,2926,2961,1072,1089,984,834,1296,2636,29104,29206,2147483647,64568,65482,218,693,10109,1175,52715,3,3,3,2
rest in thumbs,13:15:20.408,29012,7207,3027,1265,1019,1261,773,2078,1243,725,747,1911,2904,29162,29131,28867,28929,29153,1520,1226,3265,1116,2922,3010,1103,1107,997,870,1318,2689,29017,28964,2147483647,64590,65468,204,693,10086,1177,52697,3,3,3,2
rest in thumbs,13:15:20.508,29148,7198,3045,1234,971,1287,733,2039,1248,777,777,1907,2860,29228,28986,29008,28977,28942,1480,1256,3234,1138,2917,2966,1103,1098,1010,848,1291,2676,29100,29192,2147483647,64598,65474,245,692,10090,1172,52700,3,3,3,2
rest in thumbs,13:15:20.618,29091,7246,3036,1252,1041,1217,760,2043,1252,747,751,1911,2878,29153,28986,28872,28894,28990,1485,1252,3225,1129,2944,2997,1081,1037,997,865,1309,2663,29030,29113,2147483647,64563,65480,238,692,10083,1166,52693,3,3,3,2
rest in thumbs,13:15:20.708,29030,7220,3010,1243,988,1274,747,2061,1261,725,769,1911,2953,29201,29241,29250,29201,29223,1472,1265,3229,1142,2926,3027,1054,1054,997,839,1296,2667,28858,29039,2147483647,64587,65468,279,694,10061,1167,52677,3,3,3,2
rest in thumbs,13:15:20.808,29087,7229,3019,1243,1006,1291,755,2056,1248,747,755,1942,2891,29126,28929,28858,28872,28841,1494,1226,3221,1138,2900,2988,1129,1085,988,856,1283,2667,29083,29052,2147483647,64588,65443,274,684,10052,1179,52670,3,3,3,2
rest in thumbs,13:15:20.907,29078,7229,3032,1239,1006,1265,782,2025,1278,742,707,1916,2891,29223,29078,28964,28981,29056,1533,1234,3243,1138,2900,3027,1129,1045,1015,839,1274,2671,29126,29030,2147483647,64643,65511,285,616,10020,1155,52640,3,3,3,2
rest in thumbs,13:15:21.007,29021,7215,3054,1261,1010,1287,729,2043,1239,716,773,1889,2891,29184,29065,28872,28920,29091,1516,1270,3225,1146,2926,3023,1067,1059,1010,870,1313,2685,28995,29021,2147483647,64593,65461,265,561,10022,1156,52639,3,3,3,2
rest in thumbs,13:15:21.108,29126,7242,3036,1221,1028,1283,760,2047,1256,703,773,1907,2895,29206,29030,28937,28973,29087,1494,1252,3234,1133,2926,3010,1103,1067,1006,830,1305,2671,29104,29065,2147483647,64582,65468,275,526,10052,1157,52660,3,3,3,2
rest in thumbs,13:15:21.208,29144,7259,3076,1252,1001,1265,751,2043,1256,742,747,1876,2874,29109,29034,28937,28902,29012,1480,1239,3212,1129,3045,3001,1094,1076,1032,892,1291,2658,29126,29144,2147483647,64550,65446,240,516,10018,1179,52636,3,3,3,2
rest in thumbs,13:15:21.318,29126,7246,3049,1248,1015,1230,738,2039,1261,716,751,1911,2891,29223,29087,28959,28981,29113,1480,1230,3190,1111,2970,3005,1067,1067,1023,808,1305,2663,29069,29091,2147483647,64624,65477,180,449,9988,1277,52619,3,3,3,2
rest in thumbs,13:15:21.407,28977,7224,3106,1230,1019,1291,725,1995,1274,720,764,1876,2856,29140,29131,29047,29091,29131,1463,1243,3229,1146,2939,2983,1059,1085,997,878,1274,2654,28784,28946,2147483647,64636,65450,222,410,10021,1283,52644,3,3,3,2
rest in thumbs,13:15:21.516,29104,7277,3111,1226,1028,1291,747,2012,1243,729,729,1889,2843,29210,29039,28885,28929,29056,1520,1239,3225,1129,2926,3027,1085,1067,988,870,1278,2654,29030,29096,2147483647,64564,65451,226,431,10063,1267,52676,3,3,3,2
rest in thumbs,13:15:21.531,28968,7246,3106,1239,988,1261,716,2069,1261,720,760,1885,2860,29135,29140,29135,29043,29153,1485,1226,3256,1116,2988,3010,1116,1010,1001,856,1278,2632,28911,29012,2147483647,64583,65432,275,458,10055,1239,52668,3,3,3,2
rest in thumbs,13:15:21.706,28951,7198,3124,1261,993,1239,738,2025,1239,720,720,1872,2904,29223,29166,29083,29096,29241,1472,1226,3221,1146,2917,3010,1041,1085,1045,830,1305,2685,28766,28981,2147483647,64588,65450,252,470,10051,1223,52664,3,3,3,2
rest in thumbs,13:15:21.806,29069,7277,3058,1265,1037,1265,777,2043,1239,716,738,1929,2895,29162,29083,28951,28973,29087,1463,1221,3234,1133,2948,3045,1116,1045,997,848,1327,2654,29153,29166,2147483647,64584,65468,228,477,10073,1216,52681,3,3,3,2
rest in thumbs,13:15:21.906,29021,7250,3106,1243,1028,1274,716,2100,1217,764,755,1920,2904,29122,29043,28894,28894,29047,1489,1243,3229,1168,2953,3005,1111,1063,1001,834,1344,2649,29039,29030,2147483647,64583,65456,236,504,10096,1194,52700,3,3,3,2
rest in thumbs,13:15:22.006,29069,7229,3146,1252,1010,1248,711,2078,1278,751,773,1924,2891,29197,29052,28937,28955,29091,1463,1265,3225,1125,2975,3023,1072,1054,1050,861,1278,2667,29131,29083,2147483647,64605,65473,254,560,10092,1125,52689,3,3,3,2
rest in thumbs,13:15:22.034,28907,7242,3137,1265,1041,1252,725,2056,1243,755,751,1933,2900,29144,28986,28898,28872,29008,1476,1199,3260,1138,2961,3010,1076,1045,1015,865,1335,2636,29162,28933,2147483647,64544,65479,257,593,10115,1088,52707,3,3,3,2
rest in thumbs,13:15:22.206,29184,7211,3084,1239,1023,1256,755,2083,1252,751,760,1959,2869,29201,29074,29047,28999,29078,1533,1252,3221,1081,2957,3062,1076,1054,1045,834,1313,2649,29118,29122,2147483647,64581,65474,246,589,10113,1083,52706,3,3,3,2
rest in thumbs,13:15:22.306,29012,7215,3062,1270,1028,1265,751,2074,1239,703,720,1889,2882,29122,29039,28902,28924,29034,1463,1208,3260,1155,2983,3027,1116,1054,1019,896,1300,2671,29012,28981,2147483647,64585,65456,232,600,10143,1072,52728,3,3,3,2
rest in thumbs,13:15:22.324,29135,7242,3067,1256,993,1270,747,2069,1252,694,769,1898,2909,29157,29047,28964,28959,29034,1485,1278,3256,1168,2979,3005,1094,1107,1032,874,1265,2645,29192,29162,2147483647,64569,65462,269,623,10131,1033,52718,3,3,3,2
rest in thumbs,13:15:22.517,28986,7176,3049,1221,1010,1265,751,2030,1248,733,755,1916,2895,29232,29179,28898,28898,29144,1516,1177,3181,1129,2957,2992,1081,1050,997,852,1344,2671,29061,28990,2147483647,64559,65478,237,644,10133,1009,52717,3,3,3,2
rest in thumbs,13:15:22.531,28880,7171,3098,1274,1006,1248,742,2052,1270,720,755,1889,2882,29223,29206,29126,29144,29245,1472,1230,3229,1133,3005,3045,1116,1050,975,856,1296,2632,28832,28907,2147483647,64557,65488,209,662,10149,1014,52731,3,3,3,2
rest in thumbs,13:15:22.623,29188,7224,3062,1230,984,1274,729,2056,1261,707,764,1911,2860,29153,28995,28889,28863,29083,1472,1195,3181,1151,3001,2983,1098,1072,997,834,1291,2641,29122,29087,2147483647,64588,65503,202,665,10145,1016,52728,3,3,3,2
rest in thumbs,13:15:22.724,29135,7229,3098,1256,1023,1248,747,2061,1261,716,711,1933,2878,29285,29113,28981,29008,29056,1507,1186,3186,1164,2983,3023,1103,1094,1050,896,1287,2663,29039,29104,2147483647,64598,65509,222,663,10143,987,52725,3,3,3,2
rest in thumbs,13:15:22.822,29184,7185,3045,1261,1028,1270,716,2052,1195,733,773,1907,2882,29131,29039,28924,28924,29034,1511,1248,3243,1138,2975,3001,1089,1054,984,856,1300,2663,29061,29126,2147483647,64594,65502,263,665,10146,962,52725,3,3,3,2
rest in thumbs,13:15:22.923,29135,7220,3027,1243,1037,1274,773,2012,1252,694,755,1933,2887,29153,29052,28929,28964,29083,1502,1261,3216,1138,2983,2997,1125,1054,1001,856,1318,2667,29052,29083,2147483647,64584,65490,247,675,10145,976,52726,3,3,3,2
rest in thumbs,13:15:23.106,29087,7189,3036,1283,1054,1296,760,2034,1274,747,760,1845,2895,29245,29043,28955,28937,29047,1485,1204,3251,1116,2979,3010,1081,1089,979,887,1287,2654,29140,29104,2147483647,64571,65484,233,677,10160,999,52740,3,3,3,2
rest in thumbs,13:15:23.206,28929,7211,3045,1208,1028,1239,716,2061,1274,703,769,1898,2913,29153,29126,28968,28902,29091,1489,1208,3229,1129,2961,2997,1089,1067,1010,856,1305,2641,29078,28973,2147483647,64571,65477,233,674,10156,984,52735,3,3,3,2
rest in thumbs,13:15:23.308,29175,7163,3041,1217,984,1265,742,2052,1239,764,751,1916,2904,29236,29091,28995,28977,29109,1516,1256,3225,1138,2970,3005,1076,1006,988,848,1274,2619,29131,29157,2147483647,64545,65486,238,668,10156,975,52734,3,3,3,2
rest in thumbs,13:15:23.407,29135,7193,3032,1270,997,1256,725,2052,1239,711,769,1924,2900,29131,29047,28885,28911,29008,1463,1239,3243,1138,2979,3023,1076,1037,979,848,1278,2649,29017,29100,2147483647,64570,65469,232,675,10149,985,52730,3,3,3,2
rest in thumbs,13:15:23.506,29157,7202,3001,1217,1015,1265,729,2025,1278,747,769,1907,2917,29188,29126,28946,28977,29104,1502,1195,3194,1120,2983,2988,1085,1050,1010,817,1305,2654,29083,29144,2147483647,64553,65485,230,677,10146,995,52728,3,3,3,2
rest in thumbs,13:15:23.522,29122,7193,3001,1230,1001,1243,729,2052,1239,659,755,1937,2904,29144,29140,28920,28933,29188,1498,1226,3199,1116,2979,3041,1059,1045,1023,826,1313,2575,28990,29104,2147483647,64550,65476,210,680,10153,999,52734,3,3,3,2
rest in thumbs,13:15:23.707,29210,7141,3032,1199,1010,1291,703,2043,1234,760,786,1854,2904,29219,29083,28981,28995,29104,1480,1256,3229,1111,2966,2966,1076,1050,988,856,1287,2658,29118,29109,2147483647,64563,65477,241,670,10141,1000,52724,3,3,3,2
rest in thumbs,13:15:23.723,29061,7154,3001,1243,997,1243,760,2025,1234,703,777,1880,2931,29219,29052,28889,28920,29025,1489,1212,3256,1089,2966,2979,1072,1054,997,878,1270,2658,29056,28968,2147483647,64561,65472,213,651,10143,1004,52725,3,3,3,2
rest in thumbs,13:15:23.828,28977,7154,3014,1221,1028,1261,725,2061,1234,707,782,1898,2926,29188,29069,28995,28990,29153,1494,1248,3221,1142,2966,2992,1116,1041,1028,870,1296,2605,29179,29078,2147483647,64585,65490,216,642,10138,1021,52722,3,3,3,2
rest in thumbs,13:15:24.007,29184,7193,3010,1256,1023,1283,742,2056,1248,782,764,1876,2900,29153,29008,28902,28929,29039,1498,1248,3243,1142,3010,3019,1125,1054,993,826,1313,2636,29056,29113,2147483647,64577,65488,233,640,10137,1036,52722,3,3,3,2
rest in thumbs,13:15:24.107,29100,7127,2966,1221,1037,1265,755,2087,1182,777,747,1911,2895,29245,29140,28968,29039,29157,1485,1234,3159,1138,2975,2997,1063,1041,1015,830,1287,2614,29052,29109,2147483647,64562,65469,238,644,10147,1047,52731,3,3,3,2
rest in thumbs,13:15:24.207,29179,7185,3045,1270,1001,1287,716,2069,1278,703,764,1898,2922,29210,29052,29056,29039,29091,1507,1208,3225,1138,3005,3010,1133,1067,984,861,1270,2676,29144,29170,2147483647,64578,65481,232,632,10153,1046,52736,3,3,3,2
rest in thumbs,13:15:24.222,29104,7176,3054,1186,984,1274,755,2034,1248,698,742,1911,2891,29258,29197,28986,29043,29245,1467,1283,3159,1111,2970,2948,1098,1028,993,839,1313,2627,29162,29012,2147483647,64577,65468,228,621,10156,1053,52738,3,3,3,2
rest in thumbs,13:15:24.407,29197,7154,3036,1199,1001,1248,755,2056,1230,773,795,1858,2931,29184,29153,29030,28951,29148,1507,1256,3247,1129,2983,2966,1120,1045,979,821,1274,2663,29109,29144,2147483647,64576,65461,257,620,10138,1047,52723,3,3,3,2
rest in thumbs,13:15:24.507,29170,7171,3027,1230,1028,1239,733,2078,1274,711,755,1898,2926,29162,29157,28907,28902,29184,1480,1204,3243,1098,2966,3019,1076,1072,1037,852,1313,2623,29131,29100,2147483647,64552,65473,261,628,10135,1025,52719,3,3,3,2
rest in thumbs,13:15:24.607,29126,7171,3049,1221,1028,1265,751,2061,1239,755,729,1898,2909,29241,29188,28986,28845,29245,1507,1230,3216,1094,2966,3014,1072,1063,1019,817,1274,2654,29285,29175,2147483647,64547,65482,212,635,10133,1011,52717,3,3,3,2
rest in thumbs,13:15:24.707,29091,7163,2988,1270,1023,1239,742,2061,1252,738,742,1924,2917,29135,29166,28889,28929,29175,1472,1226,3229,1116,2948,2988,1089,1067,1019,856,1305,2649,29047,29083,2147483647,64571,65497,220,646,10122,1006,52709,3,3,3,2
rest in thumbs,13:15:24.807,29184,7167,3005,1291,1037,1274,755,2074,1252,755,764,1902,2917,29241,29175,28973,28977,29197,1485,1239,3172,1146,3005,3014,1103,1050,984,856,1309,2636,29162,29170,2147483647,64587,65499,243,648,10118,1009,52705,3,3,3,2
rest in thumbs,13:15:24.822,29091,7145,3054,1217,966,1265,698,2025,1261,738,769,1902,2882,29153,29144,28911,28902,29126,1507,1243,3234,1142,2975,2988,1094,1076,1015,843,1309,2676,29012,29083,2147483647,64573,65493,230,658,10128,1000,52713,3,3,3,2
thumbs to fist,13:15:24.923,29153,7207,2997,1296,1010,1283,733,2091,1261,725,751,1929,2913,29188,29192,28929,29008,29214,1511,1248,3256,1138,2957,3005,1116,1015,1006,861,1313,2636,29197,29131,2147483647,64550,65487,234,654,10126,1005,52712,3,3,3,2
thumbs to fist,13:15:25.106,29126,7149,3036,1212,1019,1274,742,2047,1252,711,747,1902,2948,29170,29122,28845,28845,29201,1494,1256,3203,1142,2953,2979,1076,1054,1006,843,1296,2685,29104,29074,2147483647,64586,65476,238,639,10122,1013,52708,3,3,3,2
thumbs to fist,13:15:25.207,29157,7141,2992,1256,1015,1234,733,2061,1256,729,738,1902,2935,29219,29232,29039,28995,29206,1441,1217,3251,1125,2931,2988,1094,1041,1001,874,1305,2605,29166,29166,2147483647,64585,65491,212,638,10125,1020,52711,3,3,3,2
thumbs to fist,13:15:25.307,29175,7105,2983,1243,1019,1278,729,2030,1278,742,755,1916,2939,29126,29113,28973,29039,29100,1458,1248,3229,1120,2944,2953,1085,1089,1015,848,1313,2641,29148,29030,2147483647,64575,65470,227,647,10124,1029,52712,3,3,3,2
thumbs to fist,13:15:25.407,29140,7136,3049,1234,1032,1274,733,2065,1252,716,777,1907,2917,29157,29170,28951,28955,29206,1480,1248,3238,1155,2953,3032,1063,1072,1010,843,1318,2645,29210,29122,2147483647,64582,65488,243,648,10123,1036,52712,3,3,3,2
thumbs to fist,13:15:25.422,29170,7154,3036,1230,988,1296,720,2025,1221,694,738,1937,2926,28995,29153,28889,28911,29126,1511,1252,3194,1125,2948,2992,1094,1107,1015,865,1305,2663,29175,29148,2147483647,64582,65469,239,648,10110,1037,52701,3,3,3,2
thumbs to fist,13:15:25.607,29131,7149,3036,1234,1019,1243,733,2078,1239,725,764,1959,2944,29118,29197,28995,29021,29219,1546,1208,3225,1116,2957,3001,1103,1059,1010,848,1291,2614,29043,29140,2147483647,64578,65480,225,656,10116,1034,52706,3,3,3,2
thumbs to fist,13:15:25.706,29100,7145,2953,1274,1001,1261,747,2034,1243,733,755,1924,2922,28986,29188,28898,28933,29170,1458,1248,3208,1133,2948,2957,1116,1050,993,852,1300,2632,29223,29148,2147483647,64590,65491,237,666,10110,1038,52702,3,3,3,2
thumbs to fist,13:15:25.723,29140,7110,2988,1252,1019,1248,751,2056,1248,769,764,1898,2931,29192,29170,28946,28911,29184,1498,1212,3229,1142,2979,3001,1142,1037,997,852,1278,2632,29030,29087,2147483647,64572,65467,239,672,10111,1057,52705,3,3,3,2
thumbs to fist,13:15:25.907,28880,7163,3010,1230,1050,1256,725,2008,1296,729,760,1911,2939,29087,29100,29184,29170,29170,1467,1234,3260,1155,2957,2983,1129,1045,997,808,1331,2645,28977,28902,2147483647,64563,65473,229,678,10106,1052,52701,3,3,3,2
thumbs to fist,13:15:25.929,28995,7119,2957,1239,1041,1252,738,2025,1239,703,747,1920,2917,29034,29131,28867,28907,29170,1489,1248,3238,1103,2966,2988,1111,1054,997,861,1335,2627,29267,29017,2147483647,64578,65484,251,676,10102,1052,52698,3,3,3,2
thumbs to fist,13:15:26.116,29170,7145,3001,1256,984,1274,742,2056,1265,747,729,1867,2922,29025,29214,28981,28964,29166,1454,1261,3177,1120,2957,2966,1098,1006,1023,826,1270,2632,29118,29122,2147483647,64565,65485,207,670,10115,1064,52708,3,3,3,2
thumbs to fist,13:15:26.207,28819,7154,2979,1248,984,1261,769,2034,1248,769,791,1911,2944,29012,29175,29078,29047,29140,1458,1239,3225,1155,2966,2992,1094,1067,1019,817,1274,2641,28894,28845,2147483647,64606,65491,227,673,10119,1073,52713,3,3,3,2
thumbs to fist,13:15:26.307,29206,7145,3010,1248,1037,1283,764,2061,1261,760,738,1854,2935,29219,29188,29210,29192,29219,1480,1248,3216,1129,2988,2988,1107,1085,1028,874,1335,2610,29245,29157,2147483647,64573,65488,239,679,10129,1083,52722,3,3,3,2
thumbs to fist,13:15:26.323,29104,7145,2979,1270,1006,1278,747,2043,1278,769,795,1907,2939,29069,29140,28867,28898,29175,1454,1230,3265,1116,2988,2997,1081,1059,1006,826,1270,2680,29113,29034,2147483647,64544,65475,213,682,10144,1088,52734,3,3,3,2
thumbs to fist,13:15:26.507,29192,7145,3019,1239,993,1234,777,2074,1265,755,742,1872,2900,29083,29241,29052,29052,29254,1494,1212,3273,1138,2909,2944,1111,1054,975,834,1305,2623,29267,29162,2147483647,64546,65454,206,682,10152,1100,52741,3,3,3,2
thumbs to fist,13:15:26.523,29162,7149,3019,1265,1023,1278,760,2061,1270,720,764,1933,2948,29061,29197,29017,29078,29144,1437,1248,3243,1107,2926,2970,1072,1059,1023,856,1335,2663,29192,29153,2147483647,64559,65477,194,688,10160,1112,52750,3,3,3,2
thumbs to fist,13:15:26.706,29113,7176,3019,1265,1023,1291,751,2030,1230,738,777,1885,2953,29118,29219,29087,29074,29263,1507,1230,3291,1146,2948,2979,1085,1067,993,865,1287,2583,29271,29170,2147483647,64555,65494,224,698,10164,1134,52755,3,3,3,2
thumbs to fist,13:15:26.807,29175,7145,3001,1261,1045,1243,720,2039,1265,729,760,1907,2944,29166,29131,29025,29083,29214,1458,1234,3238,1168,2917,2979,1072,1085,979,848,1287,2641,29192,29100,2147483647,64565,65472,230,714,10149,1152,52745,3,3,3,2
thumbs to fist,13:15:26.907,29087,7154,3014,1252,1054,1243,760,2056,1234,707,782,1911,2944,29113,29192,29065,29113,29245,1450,1256,3265,1107,2926,3010,1129,1072,988,852,1318,2649,29162,29096,2147483647,64562,65473,237,723,10145,1154,52743,3,3,3,2
thumbs to fist,13:15:27.007,29131,7141,3005,1239,993,1283,747,2012,1234,711,760,1902,2988,29021,29122,28894,28902,29131,1489,1265,3247,1125,2931,2966,1103,1050,984,900,1278,2658,29192,29078,2147483647,64581,65495,205,739,10128,1181,52733,3,3,3,2
thumbs to fist,13:15:27.022,29131,7127,2970,1212,1019,1274,716,2065,1274,738,729,1898,2975,29087,29157,29047,29087,29219,1502,1256,3317,1138,2953,2992,1107,1072,1001,874,1318,2619,29113,29078,2147483647,64569,65490,218,765,10133,1191,52739,3,3,3,2
thumbs to fist,13:15:27.207,29192,7132,3019,1248,1019,1256,729,2074,1256,742,725,1924,2948,29052,29140,29078,29061,29188,1476,1243,3265,1133,2961,2988,1072,1076,1019,856,1327,2641,29104,29157,2147483647,64565,65482,247,800,10120,1200,52732,3,3,3,2
thumbs to fist,13:15:27.222,29104,7119,2988,1252,1037,1226,716,2043,1204,747,716,1902,2953,29087,29157,29025,29043,29201,1502,1230,3278,1138,2948,3027,1063,1015,966,883,1278,2627,29021,29065,2147483647,64556,65469,247,834,10112,1231,52731,3,3,3,2
thumbs to fist,13:15:27.407,29210,7154,2979,1226,1028,1270,707,2069,1265,738,773,1898,2948,29109,29206,29100,29083,29197,1494,1243,3287,1160,2957,2944,1076,1072,1045,865,1300,2667,29100,29148,2147483647,64582,65478,214,855,10106,1269,52731,3,3,3,2
thumbs to fist,13:15:27.422,29030,7145,2948,1261,993,1265,729,2065,1270,742,769,1885,2926,29025,29131,29008,29003,29140,1524,1274,3269,1164,2926,2983,1111,1076,1015,878,1327,2605,29100,29043,2147483647,64577,65484,213,873,10114,1281,52740,3,3,3,2
thumbs to fist,13:15:27.608,29201,7145,3010,1221,1010,1256,729,1999,1261,711,777,1907,2931,29091,29206,29069,29083,29223,1467,1204,3256,1142,2944,2961,1089,1050,1023,852,1305,2614,29109,29179,2147483647,64569,65483,217,894,10119,1270,52744,3,3,3,2
thumbs to fist,13:15:27.623,29025,7145,2944,1256,1023,1261,720,2043,1256,729,729,1876,2961,29069,29096,29017,29003,29126,1450,1234,3260,1138,2922,2997,1081,1050,988,848,1291,2663,28770,29078,2147483647,64584,65458,256,901,10111,1274,52739,3,3,3,2
thumbs to fist,13:15:27.724,29091,7105,3001,1270,1023,1265,751,2061,1217,733,760,1863,3005,29113,29179,29043,29069,29241,1480,1248,3282,1107,2926,2979,1085,1041,1023,843,1261,2641,29104,29166,2147483647,64571,65470,245,914,10121,1289,52749,3,3,3,2
thumbs to fist,13:15:27.907,29135,7193,3010,1265,1001,1243,733,2056,1217,711,791,1894,3001,29061,29157,29047,29043,29109,1485,1248,3278,1142,2948,3014,1076,1076,975,861,1318,2658,29052,29100,2147483647,64535,65477,207,932,10143,1298,52769,3,3,3,2
thumbs to fist,13:15:28.006,29166,7127,3010,1239,1019,1243,703,2061,1270,703,760,1907,3032,29241,29214,29236,29197,29236,1463,1239,3278,1111,2953,3001,1085,1050,984,852,1296,2610,29078,29214,2147483647,64578,65475,215,934,10134,1296,52762,3,3,3,2
thumbs to fist,13:15:28.021,29087,7132,2992,1265,1028,1278,747,2056,1239,742,747,1880,3014,29069,29126,29021,29003,29210,1454,1252,3287,1120,2900,2961,1111,1045,1001,865,1309,2667,28929,29122,2147483647,64569,65479,206,924,10148,1289,52771,3,3,3,2
thumbs to fist,13:15:28.125,29083,7171,2988,1230,971,1278,755,2043,1265,755,755,1889,3019,29144,29214,29056,28999,29245,1480,1248,3273,1094,2953,3014,1116,1010,1032,865,1287,2649,28819,29179,2147483647,64555,65478,190,919,10163,1299,52784,3,3,3,2
thumbs to fist,13:15:28.222,29192,7180,3010,1265,1063,1270,777,2039,1274,729,747,1867,3014,29021,29135,29030,29052,29184,1494,1217,3291,1151,2917,2983,1063,1041,1010,874,1296,2654,28656,29192,2147483647,64596,65460,208,906,10177,1317,52796,3,3,3,2
thumbs to fist,13:15:28.407,29091,7163,2970,1278,1010,1221,751,2074,1217,733,738,1924,3032,29091,29201,29056,29135,29201,1467,1252,3273,1138,2931,3005,1138,1045,958,861,1283,2636,28713,29083,2147483647,64582,65469,224,924,10178,1344,52801,3,3,3,2
thumbs to fist,13:15:28.422,29148,7158,2966,1252,997,1261,703,2065,1226,716,747,1902,3036,29047,29122,29047,29078,29126,1489,1265,3291,1133,2944,2983,1125,1067,984,848,1261,2654,28766,29157,2147483647,64544,65494,207,947,10193,1345,52815,3,3,3,2
thumbs to fist,13:15:28.607,29232,7189,2997,1265,975,1248,716,2030,1248,720,725,1894,3010,29109,29175,29083,29065,29188,1502,1265,3265,1120,2953,2975,1072,1041,993,865,1278,2658,28718,29263,2147483647,64556,65472,196,950,10199,1349,52820,3,3,3,2
thumbs to fist,13:15:28.707,29175,7158,3001,1287,1015,1261,738,2034,1221,703,742,1894,3076,29083,29241,29091,29091,29175,1476,1243,3238,1146,2961,2992,1089,1059,1023,883,1278,2645,28705,29166,2147483647,64589,65464,224,930,10198,1358,52819,3,3,3,2
thumbs to fist,13:15:28.807,29078,7136,3001,1287,984,1287,716,2069,1199,716,764,1929,3041,29078,29153,29003,29074,29126,1458,1221,3273,1129,2975,3001,1098,1059,1032,834,1305,2671,28705,29109,2147483647,64559,65461,242,926,10221,1366,52838,3,3,3,2
thumbs to fist,13:15:28.907,29263,7189,2975,1287,979,1278,747,2030,1252,755,755,1907,2979,29122,29192,29065,29087,29197,1494,1243,3287,1103,2975,2966,1085,1081,997,861,1261,2627,28841,29276,2147483647,64549,65448,201,940,10228,1392,52848,3,3,3,2
thumbs to fist,13:15:29.006,29096,7114,2983,1274,1041,1261,773,2052,1252,725,755,1924,3058,29039,29118,29109,29052,29100,1480,1261,3287,1125,2979,2939,1125,1050,1023,883,1313,2619,28656,29113,2147483647,64566,65494,181,966,10228,1409,52851,3,3,3,2
thumbs to fist,13:15:29.022,29184,7163,2979,1283,1015,1261,747,2065,1208,729,747,1916,3010,29065,29192,29228,29206,29197,1502,1243,3269,1142,2957,3036,1094,1063,1001,865,1335,2676,28735,29135,2147483647,64584,65499,180,987,10240,1400,52861,3,3,3,2
thumbs to fist,13:15:29.207,29210,7176,3032,1296,1001,1287,760,2043,1248,729,764,1902,3005,29056,29131,29201,29162,29157,1467,1234,3273,1094,2983,2979,1081,1116,993,852,1296,2658,28845,29219,2147483647,64583,65491,209,1009,10237,1386,52859,3,3,3,2
thumbs to fist,13:15:29.223,29223,7163,2988,1309,1001,1256,729,2003,1287,729,720,1880,3045,29131,29219,29228,29210,29219,1485,1234,3282,1160,2939,2957,1120,1081,1041,883,1305,2641,28788,29201,2147483647,64561,65468,218,1023,10245,1381,52866,3,3,3,2
thumbs to fist,13:15:29.322,29223,7110,2970,1278,997,1270,755,2061,1248,725,773,1889,2992,29047,29170,29096,29091,29166,1445,1239,3265,1133,2970,3036,1103,1054,1001,878,1283,2658,28819,29201,2147483647,64579,65484,228,1022,10242,1390,52864,3,3,3,2
thumbs to fist,13:15:29.507,29302,7110,2988,1278,1041,1256,738,2047,1265,742,777,1889,3036,29210,29219,29192,29245,29219,1476,1221,3282,1125,2970,3049,1103,1050,962,865,1327,2663,28696,29276,2147483647,64561,65487,202,1015,10253,1389,52873,3,3,3,2
thumbs to fist,13:15:29.522,29219,7136,2948,1291,993,1296,764,2034,1230,729,755,1894,3023,29069,29166,29162,29175,29144,1476,1234,3243,1160,2992,3019,1103,1067,1067,839,1335,2658,28889,29206,2147483647,64584,65480,211,1016,10252,1387,52872,3,3,3,2
thumbs to fist,13:15:29.624,29126,7123,2983,1296,1037,1296,764,2065,1252,738,764,1880,3032,29122,29232,29219,29210,29241,1463,1261,3234,1155,2992,2975,1107,1072,997,914,1283,2693,28722,29091,2147483647,64563,65469,202,1030,10259,1400,52880,3,3,3,2
thumbs to fist,13:15:29.724,29236,7171,2957,1296,997,1278,742,2047,1278,751,764,1902,2970,29122,29104,29166,29148,29157,1480,1243,3273,1133,2957,2979,1094,1063,975,843,1270,2619,28907,29131,2147483647,64578,65486,187,1029,10261,1413,52883,3,3,3,2
thumbs to fist,13:15:29.907,29109,7119,2957,1256,1045,1291,703,2043,1248,769,747,1951,2997,29126,29258,29210,29228,29258,1524,1226,3251,1146,2992,3019,1081,1054,1015,852,1270,2645,28735,29175,2147483647,64593,65466,222,1027,10265,1420,52887,3,3,3,2
thumbs to fist,13:15:29.922,29267,7132,2988,1287,993,1278,729,2047,1261,716,769,1916,3001,29078,29184,29170,29175,29144,1476,1252,3247,1120,2935,3010,1094,1081,997,887,1274,2597,28683,29289,2147483647,64586,65491,210,1030,10264,1426,52887,3,3,3,2
rest in fist,13:15:30.117,28986,7088,2966,1234,1028,1283,738,2043,1265,733,755,1911,2988,29078,29206,29245,29263,29144,1472,1248,3260,1160,3010,2979,1089,1006,984,808,1300,2641,29091,28999,2147483647,64544,65465,201,1036,10283,1426,52903,3,3,3,2
rest in fist,13:15:30.207,29153,7083,2970,1252,1032,1248,751,2025,1261,716,791,1894,3005,29030,29179,29245,29192,29166,1485,1248,3251,1129,2975,2975,1107,1072,1015,839,1300,2658,29126,29091,2147483647,64589,65470,219,1041,10282,1438,52904,3,3,3,2
rest in fist,13:15:30.307,29131,7097,2957,1239,1037,1239,751,2030,1252,733,773,1898,2979,29109,29192,29148,29170,29170,1524,1221,3269,1120,2966,2983,1098,1015,993,874,1278,2645,28560,29104,2147483647,64562,65473,189,1052,10289,1418,52908,3,3,3,2
rest in fist,13:15:30.407,29307,7123,2944,1278,1023,1313,769,2061,1252,738,742,1894,2992,29039,29214,29219,29236,29263,1463,1261,3234,1168,2970,2970,1094,1059,993,830,1296,2654,28775,29267,2147483647,64553,65481,201,1043,10295,1421,52913,3,3,3,2
rest in fist,13:15:30.507,29201,7180,2983,1261,1010,1278,711,2021,1252,720,747,1894,2970,29087,29083,29157,29179,29069,1485,1252,3278,1094,2992,2957,1054,1041,997,861,1305,2627,28665,29245,2147483647,64550,65493,178,1031,10312,1416,52925,3,3,3,2
rest in fist,13:15:30.607,29315,7110,2948,1270,1015,1318,742,2030,1261,760,751,1885,3014,29140,29144,29192,29263,29109,1480,1243,3251,1142,2992,2988,1125,1037,979,852,1331,2627,28652,29263,2147483647,64592,65469,215,1027,10308,1432,52924,3,3,3,2
rest in fist,13:15:30.707,29162,7105,2944,1296,1015,1217,738,2069,1221,747,777,1907,2957,29166,29047,29109,29192,29052,1472,1283,3256,1120,3005,2909,1045,1032,1019,874,1291,2627,28696,29170,2147483647,64568,65474,204,1021,10320,1451,52935,3,3,3,2
rest in fist,13:15:30.807,29302,7083,3005,1291,1001,1291,720,2043,1230,747,795,1929,2992,29144,29118,29263,29219,29100,1520,1212,3243,1177,3001,2992,1089,1072,997,870,1322,2632,28661,29258,2147483647,64555,65463,188,1023,10332,1454,52946,3,3,3,2
rest in fist,13:15:30.907,29197,7119,2939,1322,1028,1278,738,2047,1226,742,764,1889,2983,29012,28995,29179,29122,29113,1458,1243,3243,1129,3001,2979,1111,1059,1045,852,1291,2663,28674,29162,2147483647,64568,65469,166,1019,10337,1466,52950,3,3,3,2
rest in fist,13:15:31.007,29254,7101,2953,1261,975,1283,738,2043,1243,733,773,1889,2970,29126,29096,29223,29276,29096,1423,1274,3243,1125,2957,2948,1111,1076,993,826,1296,2663,28757,29271,2147483647,64568,65477,187,1019,10331,1469,52946,3,3,3,2
rest in fist,13:15:31.107,29289,7176,2935,1261,1010,1278,729,2034,1199,738,786,1889,2953,29030,29043,29170,29166,29043,1401,1239,3234,1133,2992,2944,1142,1076,1032,865,1291,2649,28647,29267,2147483647,64576,65475,174,1019,10335,1489,52951,3,3,3,2
rest in fist,13:15:31.207,29197,7057,2922,1265,988,1287,751,2021,1221,711,777,1916,2970,29118,29109,29258,29258,29157,1485,1195,3225,1120,2983,2948,1094,1072,975,878,1309,2649,28683,29210,2147483647,64548,65481,171,1028,10333,1486,52950,3,3,3,2
rest in fist,13:15:31.223,29250,7070,2944,1300,1015,1195,733,2030,1261,764,764,1907,2975,29069,29030,29144,29153,28995,1476,1256,3229,1155,2975,2948,1116,1037,997,856,1261,2636,28669,29179,2147483647,64585,65479,218,1028,10311,1479,52931,3,3,3,2
rest in fist,13:15:31.407,29219,7136,2948,1248,984,1204,769,2039,1234,725,733,1894,2997,29113,29109,29197,29210,29144,1472,1252,3238,1116,3010,2939,1133,1063,984,870,1287,2641,28814,29188,2147483647,64599,65491,170,1021,10281,1474,52906,3,3,3,2
rest in fist,13:15:31.422,29258,7119,2913,1256,1006,1252,755,2043,1239,729,769,1916,2983,29061,29069,29245,29166,29025,1476,1230,3256,1125,2997,2944,1125,1063,1010,905,1287,2641,28678,29263,2147483647,64578,65504,169,1016,10308,1460,52926,3,3,3,2
rest in fist,13:15:31.607,29241,7053,2948,1287,997,1239,760,2047,1226,738,755,1911,2953,29126,29008,29126,29170,29030,1467,1234,3216,1133,3010,2966,1085,1015,1006,865,1287,2627,28828,29210,2147483647,64583,65477,203,1025,10307,1447,52924,3,3,3,2
rest in fist,13:15:31.622,29298,7088,2939,1300,1015,1221,751,2039,1234,703,751,1880,3001,29061,29074,29214,29254,29083,1423,1234,3243,1155,2997,2970,1076,1098,993,852,1283,2702,28687,29271,2147483647,64574,65482,208,1029,10303,1445,52921,3,3,3,2
rest in fist,13:15:31.827,28740,7119,2939,1261,1032,1261,720,2003,1239,742,764,1902,2957,29074,29065,29104,29184,29065,1445,1265,3243,1129,3001,2944,1085,1059,993,861,1287,2641,28902,28858,2147483647,64574,65480,194,1032,10304,1447,52922,3,3,3,2
rest in fist,13:15:31.917,29148,7083,2939,1270,1028,1261,716,2039,1252,698,786,1946,2957,29201,29179,28973,28973,29166,1494,1226,3238,1142,3014,3005,1094,1059,1015,878,1265,2667,29065,29175,2147483647,64598,65476,206,1030,10300,1455,52920,3,3,3,2
rest in fist,13:15:32.007,29241,7088,2900,1278,997,1274,760,2052,1212,733,777,1916,3005,29025,28542,29197,29131,28582,1502,1204,3269,1173,2957,2983,1103,1041,997,834,1287,2632,29034,29184,2147483647,64559,65483,195,1035,10310,1450,52928,3,3,3,2
rest in fist,13:15:32.107,29280,7070,2939,1274,1050,1252,725,2025,1234,711,764,1898,2988,29232,29236,29223,29214,29206,1489,1243,3225,1164,2997,2975,1089,1059,1015,852,1287,2610,29003,29307,2147483647,64558,65486,182,1035,10313,1448,52930,3,3,3,2
rest in fist,13:15:32.122,29219,7110,2953,1283,1050,1256,720,2061,1256,711,747,1902,2957,29096,29074,29179,29131,29003,1458,1243,3278,1146,2961,2948,1063,1063,993,865,1265,2641,28916,29210,2147483647,64581,65478,195,1035,10306,1449,52925,3,3,3,2
rest in fist,13:15:32.222,29179,7092,2961,1248,1023,1217,747,2030,1248,725,742,1902,2979,29192,29096,29206,29219,29061,1485,1265,3273,1125,2997,2979,1098,1010,966,878,1296,2649,28981,29271,2147483647,64592,65486,188,1039,10314,1450,52931,3,3,3,2
rest in fist,13:15:32.323,29100,7035,2882,1278,1028,1195,738,2056,1217,698,755,1898,2944,29052,29021,29104,29170,29025,1498,1230,3216,1160,2979,3001,1116,1081,1006,830,1283,2645,28828,29074,2147483647,64569,65476,178,1039,10317,1442,52933,3,3,3,2
rest in fist,13:15:32.507,29113,7110,2926,1261,1041,1265,720,2025,1239,751,760,1920,2939,29192,29184,29210,29201,29162,1494,1234,3238,1125,2983,2935,1089,1085,1037,874,1309,2627,29012,29192,2147483647,64562,65477,173,1033,10320,1438,52934,3,3,3,2
rest in fist,13:15:32.523,29162,7079,2953,1287,993,1248,725,2039,1243,725,747,1898,2966,29104,29008,29140,29162,28986,1415,1230,3256,1142,2997,2988,1111,1072,1001,848,1256,2671,28924,29056,2147483647,64594,65484,184,1025,10312,1440,52927,3,3,3,2
rest in fist,13:15:32.707,29091,7022,2948,1248,988,1239,751,2017,1230,694,764,1924,2997,29197,29250,29192,29188,29219,1454,1252,3273,1116,2970,2970,1133,1041,984,874,1274,2645,28867,29109,2147483647,64591,65495,184,1021,10317,1441,52932,3,3,3,2
rest in fist,13:15:32.807,29126,7075,2922,1287,1032,1252,751,2025,1243,725,725,1863,3005,29025,29025,29197,29166,29069,1485,1226,3287,1125,2975,2953,1111,1050,1045,865,1335,2619,28946,29100,2147483647,64565,65490,184,1022,10336,1453,52948,3,3,3,2
rest in fist,13:15:32.822,29083,7079,2904,1226,997,1283,703,2030,1243,711,769,1880,2957,29192,29069,29170,29223,29100,1516,1243,3251,1195,2953,2939,1094,1072,1023,839,1291,2627,28964,29087,2147483647,64578,65500,158,1028,10343,1462,52956,3,3,3,2
rest in fist,13:15:33.007,29144,7092,2869,1221,958,1291,733,2056,1239,755,760,1911,2966,29298,29175,29166,29210,29241,1498,1230,3243,1160,2966,2948,1103,1041,993,826,1300,2667,28959,29131,2147483647,64597,65493,164,1020,10350,1467,52961,3,3,3,2
rest in fist,13:15:33.022,29091,7075,2904,1239,1041,1261,716,2034,1212,716,795,1924,2983,29236,29153,29091,29162,29148,1520,1256,3247,1160,2992,2953,1116,1019,993,852,1278,2627,28955,29126,2147483647,64598,65480,169,1023,10366,1482,52977,3,3,3,2
rest in fist,13:15:33.207,29144,7035,2926,1248,1015,1239,729,2025,1239,716,755,1911,2970,29083,29087,29197,29157,29109,1463,1204,3243,1125,2988,2975,1098,1045,1037,870,1274,2663,28946,29126,2147483647,64572,65480,169,1032,10360,1490,52973,3,3,3,2
rest in fist,13:15:33.307,29069,7105,2953,1265,1006,1265,689,2069,1270,733,747,1902,3010,29012,28999,29153,29166,29047,1494,1234,3260,1116,2966,2983,1085,1063,1001,843,1287,2636,28894,29104,2147483647,64594,65485,172,1030,10354,1495,52969,3,3,3,2
rest in fist,13:15:33.407,29109,7088,2882,1265,997,1283,733,2056,1208,729,764,1898,2992,29206,29122,29219,29250,29140,1489,1164,3229,1129,2970,2975,1138,1037,1006,870,1300,2632,28907,29104,2147483647,64591,65487,175,1021,10345,1483,52959,3,3,3,2
rest in fist,13:15:33.507,28990,7114,2966,1265,1023,1256,733,2039,1212,711,720,1894,2953,29170,29012,29166,29201,29003,1485,1217,3251,1133,2966,2966,1081,1085,997,826,1291,2632,28863,28995,2147483647,64594,65481,188,1028,10329,1477,52946,3,3,3,2
rest in fist,13:15:33.607,28973,7088,2869,1283,1050,1305,733,2043,1199,747,786,1894,2992,29175,29118,29219,29219,29096,1533,1243,3181,1164,3014,2970,1103,1067,1006,909,1300,2667,28955,29003,2147483647,64571,65493,178,1041,10329,1472,52946,3,3,3,2
rest in fist,13:15:33.622,28687,7075,2931,1265,1023,1274,773,2052,1230,681,703,1876,2953,29109,29091,29122,29104,29083,1480,1212,3265,1138,3014,3014,1085,1072,988,892,1300,2649,28894,28762,2147483647,64577,65481,170,1049,10334,1487,52953,3,3,3,2
rest in fist,13:15:33.807,28700,7097,2917,1256,1028,1265,729,2061,1212,733,777,1885,2983,29214,29122,29236,29245,29118,1454,1234,3247,1177,3005,2939,1081,1041,1001,852,1270,2641,28929,28687,2147483647,64578,65484,177,1054,10321,1474,52942,3,3,3,2
rest in fist,13:15:33.907,28828,7092,2913,1252,1037,1265,733,2034,1195,751,764,1885,2983,29188,29210,29144,29083,29175,1472,1256,3260,1146,2992,2966,1120,1041,1001,852,1274,2676,28964,28968,2147483647,64572,65486,189,1054,10321,1468,52941,3,3,3,2
rest in fist,13:15:33.923,28696,7070,2874,1261,1006,1234,733,2021,1234,760,751,1863,2970,29315,29219,29214,29245,29210,1454,1217,3229,1116,3001,2953,1054,1067,979,843,1265,2588,29021,28718,2147483647,64573,65487,172,1047,10322,1473,52941,3,3,3,2
rest in fist,13:15:34.021,28766,7079,2882,1256,1023,1270,689,2043,1252,720,729,1902,2970,29228,29179,29157,29170,29184,1445,1204,3216,1133,2966,2926,1116,1072,962,856,1278,2632,28924,28749,2147483647,64576,65473,186,1052,10317,1467,52937,3,3,3,2
rest in fist,13:15:34.207,28669,7057,2917,1274,975,1261,760,2056,1270,729,729,1907,2979,29311,29126,29148,29206,29175,1472,1234,3265,1098,2988,2948,1094,1045,1015,861,1248,2654,28828,28757,2147483647,64547,65482,215,1053,10306,1458,52927,3,3,3,2
rest in fist,13:15:34.317,28801,7092,2874,1252,1001,1278,742,2078,1270,738,742,1894,2953,29188,29100,29166,29126,29126,1476,1274,3243,1116,3010,2975,1120,1028,971,870,1270,2671,28889,28814,2147483647,64562,65488,171,1056,10314,1457,52934,3,3,3,2
rest in fist,13:15:34.407,29122,7075,2913,1261,997,1274,733,2008,1217,733,720,1907,2922,29039,28740,29184,29280,28845,1489,1261,3278,1133,2997,2957,1085,1041,1010,861,1296,2667,29096,29074,2147483647,64597,65487,175,1053,10309,1462,52930,3,3,3,2
rest in fist,13:15:34.507,28762,7083,2926,1256,1028,1239,694,2025,1212,703,751,1907,2966,29232,28973,29210,29219,29061,1467,1212,3265,1103,2966,2944,1098,1081,962,905,1270,2610,28977,28810,2147483647,64581,65496,172,1064,10315,1464,52936,3,3,3,2
rest in fist,13:15:34.523,28744,7048,2909,1270,1023,1239,725,2008,1252,782,751,1898,2957,29148,29056,29166,29153,29017,1476,1256,3265,1133,2975,2961,1059,1085,988,865,1296,2636,28819,28740,2147483647,64581,65480,189,1067,10311,1449,52931,3,3,3,2
rest in fist,13:15:34.727,28775,7053,2917,1283,1032,1256,720,2056,1270,729,720,1911,2966,29228,29104,29241,29214,29096,1511,1212,3247,1164,2988,2970,1129,1041,971,878,1283,2619,28858,28735,2147483647,64558,65471,227,1069,10319,1464,52940,3,3,3,2
rest in fist,13:15:34.807,29039,7031,2887,1256,979,1256,729,2043,1261,698,751,1911,2979,29184,29148,29175,29162,29162,1498,1234,3260,1133,2983,2953,1072,1067,1028,817,1274,2641,28880,28973,2147483647,64565,65478,174,1080,10326,1465,52946,3,3,3,2
rest in fist,13:15:34.908,28898,7035,2935,1270,1050,1261,729,2025,1221,769,760,1872,2992,29184,29131,29206,29201,29131,1441,1239,3282,1151,2970,2948,1081,1050,1010,804,1291,2654,28850,28735,2147483647,64544,65478,185,1085,10318,1454,52939,3,3,3,2
rest in fist,13:15:34.922,28779,7044,2895,1252,1010,1283,733,2021,1230,738,777,1937,3005,29285,29153,29170,29223,29118,1467,1265,3247,1146,2970,2953,1111,1063,1006,839,1296,2601,28757,28858,2147483647,64561,65487,203,1090,10305,1436,52925,3,3,3,2
fist to point,13:15:35.023,28797,7066,2887,1274,1045,1256,742,2003,1256,751,786,1933,2966,29373,29232,29201,29210,29219,1463,1217,3295,1120,3001,2957,1067,1059,993,839,1327,2680,28854,28907,2147483647,64563,65479,205,1090,10301,1435,52924,3,3,3,2
fist to point,13:15:35.122,28810,7088,2878,1287,1006,1234,747,2047,1243,711,725,1850,2957,29219,29166,29210,29153,29153,1458,1256,3256,1120,2979,2970,1125,1067,988,834,1283,2649,28863,28749,2147483647,64588,65485,201,1087,10298,1434,52921,3,3,3,2
fist to point,13:15:35.223,28696,7048,2904,1274,979,1261,698,2012,1226,729,777,1880,2983,29315,29250,29223,29228,29241,1476,1252,3203,1155,2961,2944,1072,1019,988,870,1296,2654,28810,28727,2147483647,64566,65489,186,1086,10304,1434,52925,3,3,3,2
fist to point,13:15:35.407,28770,7092,2904,1287,997,1256,729,2030,1221,742,795,1898,2926,29153,29030,29179,29192,29061,1476,1243,3260,1120,2957,2966,1089,1067,971,848,1287,2636,28757,28700,2147483647,64565,65477,202,1082,10302,1451,52927,3,3,3,2
fist to point,13:15:35.507,28828,7044,2878,1230,988,1265,694,2043,1261,742,733,1911,2935,29219,29122,29219,29263,29100,1467,1212,3234,1125,2961,2944,1089,1041,1015,887,1256,2663,28797,28819,2147483647,64568,65481,183,1084,10312,1454,52932,3,3,3,2
fist to point,13:15:35.607,28766,7101,2970,1261,1015,1221,738,2069,1248,742,760,1916,2953,29276,29047,29162,29153,29065,1489,1270,3243,1129,2957,2957,1107,1032,962,865,1300,2676,28797,28678,2147483647,64565,65494,169,1079,10311,1447,52932,3,3,3,2
fist to point,13:15:35.707,28687,7154,2992,1261,975,1248,729,2061,1256,685,720,1933,2997,29359,29228,29061,29061,29214,1489,1234,3269,1125,2939,2957,1098,1059,1010,856,1274,2636,28775,28678,2147483647,64592,65487,215,1075,10315,1451,52936,3,3,3,2
fist to point,13:15:35.807,28955,7163,3001,1283,1023,1248,777,2008,1177,738,747,1898,3010,29144,29078,29236,29162,29069,1454,1226,3309,1168,2966,2979,1111,1063,971,870,1318,2680,28784,28683,2147483647,64563,65489,193,1069,10328,1457,52946,3,3,3,2
fist to point,13:15:35.907,28731,7180,3045,1278,1010,1287,747,1995,1248,729,738,1920,2970,29157,29118,29140,29192,29109,1507,1248,3339,1107,2983,2983,1081,1081,1019,896,1291,2680,28784,28867,2147483647,64584,65451,207,1075,10319,1469,52938,3,3,3,2
fist to point,13:15:36.007,28749,7163,3019,1274,1006,1270,711,2021,1300,755,769,1872,2988,29214,29096,29258,29210,29100,1489,1239,3331,1103,2983,2988,1116,1037,997,865,1309,2680,28845,28731,2147483647,64539,65482,192,1087,10337,1479,52961,3,3,3,2
fist to point,13:15:36.022,28770,7158,3005,1291,1001,1265,760,2061,1230,707,751,1880,3005,29096,29056,29179,29135,29025,1467,1212,3313,1116,2983,2970,1081,1094,1006,861,1283,2645,28788,28709,2147483647,64562,65469,148,1085,10353,1500,52970,3,3,3,2
fist to point,13:15:36.207,28845,7154,3019,1261,1028,1291,729,2034,1239,747,751,1872,2992,29346,29236,29206,29280,29232,1498,1265,3278,1120,3001,2957,1063,1059,975,834,1278,2689,28819,28981,2147483647,64577,65484,141,1082,10346,1510,52965,3,3,3,2
fist to point,13:15:36.307,28784,7171,3014,1243,997,1274,755,2030,1239,729,725,1920,2988,29126,29034,29135,29157,29034,1489,1239,3282,1120,2983,2988,1081,1076,1006,865,1287,2698,28718,28713,2147483647,64618,65500,206,1083,10341,1485,52952,3,3,3,2
fist to point,13:15:36.407,29008,7242,3049,1291,988,1270,729,2039,1248,764,742,1876,2983,29201,29096,29236,29214,29096,1472,1226,3322,1116,2992,3023,1103,1054,979,870,1278,2689,28819,28977,2147483647,64588,65489,210,1109,10311,1489,52942,3,3,3,2
fist to point,13:15:36.507,28749,7180,3049,1221,971,1296,729,2065,1261,751,733,1907,2961,29197,29052,29166,29122,29047,1498,1221,3300,1138,2983,3014,1076,1037,1015,830,1309,2693,28766,28705,2147483647,64551,65471,186,1129,10320,1499,52952,3,3,3,2
fist to point,13:15:36.607,28792,7242,3089,1230,979,1248,720,2039,1226,716,729,1894,2953,29315,29192,29179,29192,29250,1485,1230,3317,1164,3010,2922,1125,1059,1001,843,1305,2671,28858,28850,2147483647,64560,65479,206,1145,10307,1500,52942,3,3,3,2
fist to point,13:15:36.707,28836,7207,3093,1283,1050,1265,720,2039,1212,725,738,1880,2975,29263,29148,29245,29162,29162,1480,1190,3295,1133,2957,2957,1089,1072,1028,861,1278,2663,28740,28810,2147483647,64529,65475,195,1148,10300,1480,52938,3,3,3,2
fist to point,13:15:36.723,28709,7171,3041,1287,997,1283,711,2056,1256,782,764,1911,2975,29219,29100,29210,29232,29118,1498,1239,3317,1164,2970,2975,1116,1098,1001,861,1300,2667,28814,28656,2147483647,64537,65457,132,1158,10313,1476,52942,3,3,3,2
fist to point,13:15:36.822,28885,7193,3084,1248,1028,1248,751,2021,1243,738,764,1889,2944,29271,29021,29197,29188,29061,1502,1204,3322,1094,2997,3014,1089,1037,1019,852,1278,2641,28770,28731,2147483647,64573,65504,136,1161,10301,1465,52926,3,3,3,2
fist to point,13:15:37.007,28687,7229,3106,1248,993,1261,747,2061,1243,747,742,1911,2909,29307,29096,29069,29140,29122,1480,1217,3339,1103,3014,2979,1094,1067,1006,821,1300,2649,28841,28722,2147483647,64622,65527,165,1162,10281,1436,52908,3,3,3,2
fist to point,13:15:37.107,28766,7233,3084,1248,1045,1252,773,2034,1252,769,791,1872,2935,29184,29056,29091,29078,29039,1520,1261,3313,1111,3001,2983,1081,1050,979,856,1274,2698,28823,28696,2147483647,64637,65513,167,1158,10270,1426,52896,3,3,3,2
fist to point,13:15:37.123,28902,7207,3076,1248,984,1291,703,2008,1234,725,764,1876,2944,29263,29074,29039,29144,29131,1507,1226,3256,1125,2992,2931,1111,1072,1010,821,1270,2649,28797,28858,2147483647,64615,65509,228,1161,10275,1428,52905,3,3,3,2
fist to point,13:15:37.307,28792,7189,3023,1226,1001,1274,751,2056,1230,720,755,1924,2913,29214,29056,29131,29135,29025,1480,1239,3304,1133,3010,2997,1085,1054,1050,852,1313,2663,28823,28757,2147483647,64595,65470,222,1176,10271,1428,52905,3,3,3,2
fist to point,13:15:37.323,28898,7246,3067,1278,984,1212,755,2034,1256,764,782,1894,2957,29170,29021,29052,29096,29162,1511,1195,3282,1151,3010,2944,1146,1067,958,883,1313,2676,28823,28762,2147483647,64542,65457,189,1181,10275,1432,52910,3,3,3,2
fist to point,13:15:37.507,28867,7171,3054,1261,997,1265,733,2034,1256,742,738,1885,2975,29214,29126,29087,29025,29096,1458,1243,3256,1129,3019,2983,1098,1067,966,830,1274,2685,28863,28981,2147483647,64550,65465,209,1166,10259,1427,52891,3,3,3,2
fist to point,13:15:37.607,28722,7220,3071,1283,1001,1230,733,2039,1239,729,764,1885,2953,29166,29069,28999,29074,29069,1498,1217,3300,1129,3036,3019,1103,1072,1023,861,1300,2693,28819,28683,2147483647,64586,65468,183,1151,10243,1434,52881,3,3,3,2
fist to point,13:15:37.707,28986,7215,3106,1243,984,1278,764,2039,1261,777,738,1894,2904,29197,29201,29214,29223,29219,1432,1226,3287,1164,3045,2948,1111,1045,993,821,1335,2658,28880,28749,2147483647,64587,65509,190,1139,10246,1421,52878,3,3,3,2
fist to point,13:15:37.807,28801,7264,3071,1252,1019,1243,760,2017,1243,733,760,1867,2966,29170,29003,29039,29030,29056,1476,1221,3278,1111,3032,2970,1098,1072,979,830,1300,2627,28810,28946,2147483647,64607,65494,203,1132,10249,1435,52880,3,3,3,2
fist to point,13:15:37.907,28823,7229,3093,1265,966,1270,760,2043,1252,760,760,1880,2895,29241,29245,29263,29263,29241,1511,1239,3295,1133,3045,2975,1094,1063,988,861,1322,2676,28863,28740,2147483647,64606,65492,205,1129,10250,1459,52886,3,3,3,2
fist to point,13:15:38.007,28942,7185,3036,1256,993,1270,742,2056,1226,742,742,1876,2895,29157,29113,28990,29025,29069,1458,1261,3326,1160,3084,2957,1098,1072,1023,874,1278,2720,28788,28683,2147483647,64564,65486,210,1131,10250,1464,52890,3,3,3,2
fist to point,13:15:38.109,28986,7220,3067,1256,1015,1248,725,2074,1270,733,769,1916,2939,29250,29166,29131,29140,29122,1467,1217,3273,1120,3036,2975,1098,1072,997,865,1296,2689,28858,28880,2147483647,64583,65475,221,1132,10249,1468,52889,3,3,3,2
fist to point,13:15:38.123,29017,7246,3019,1248,1059,1243,747,2056,1230,773,773,1898,2961,29175,29039,29017,29052,28902,1516,1252,3300,1129,3036,2953,1085,1076,984,848,1291,2689,28810,29017,2147483647,64563,65473,192,1121,10237,1483,52878,3,3,3,2
fist to point,13:15:38.308,28863,7141,3014,1270,988,1296,742,2039,1274,742,773,1894,2926,29219,29232,29206,29236,29214,1485,1239,3287,1103,3032,2948,1125,1094,993,839,1274,2680,28823,28727,2147483647,64572,65490,177,1118,10228,1481,52872,3,3,3,2
fist to point,13:15:38.408,28845,7242,3058,1234,1028,1226,742,1990,1248,773,751,1880,2931,29126,29047,29052,29069,29061,1480,1208,3282,1164,3080,2975,1107,1059,997,843,1256,2671,28770,28885,2147483647,64609,65492,211,1125,10209,1476,52857,3,3,3,2
fist to point,13:15:38.508,28757,7224,3014,1248,1006,1265,751,2012,1248,755,773,1880,2975,29236,29109,29104,29162,29126,1458,1221,3256,1107,3067,2979,1125,1045,979,861,1270,2680,28797,28770,2147483647,64570,65485,223,1138,10203,1473,52853,3,3,3,2
fist to point,13:15:38.617,29034,7198,3010,1252,997,1221,720,2052,1239,738,733,1898,2926,29166,29056,29030,29083,29017,1485,1234,3269,1107,3093,2966,1111,1098,966,861,1274,2715,28876,29061,2147483647,64559,65462,238,1158,10200,1486,52854,3,3,3,2
fist to point,13:15:38.707,29104,7180,3041,1256,988,1243,747,2025,1239,747,738,1863,2953,28933,29109,28959,28995,29109,1511,1195,3291,1116,3045,2957,1089,1054,1001,892,1265,2689,28981,29109,2147483647,64531,65445,240,1156,10204,1492,52857,3,3,3,2
fist to point,13:15:38.807,28911,7207,3080,1252,1019,1270,716,2034,1243,716,725,1867,2909,29214,29021,29104,29131,29008,1494,1239,3357,1155,3102,2961,1072,1054,988,812,1322,2645,28929,28955,2147483647,64546,65472,227,1173,10221,1466,52870,3,3,3,2
fist to point,13:15:38.917,28999,7211,3049,1296,1015,1248,711,2012,1274,782,760,1889,2926,29206,29109,29104,29153,29118,1498,1239,3353,1164,3058,2970,1116,1067,953,856,1340,2698,28806,28929,2147483647,64532,65473,185,1168,10204,1456,52854,3,3,3,2
fist to point,13:15:39.007,29126,7185,3054,1256,1015,1252,707,2043,1230,742,755,1858,2922,28924,29003,28876,28955,29030,1494,1256,3335,1155,3080,2992,1094,1094,997,834,1287,2680,29025,29131,2147483647,64593,65516,194,1161,10207,1463,52856,3,3,3,2
fist to point,13:15:39.107,28977,7229,3071,1239,1015,1265,738,2021,1261,755,703,1876,2900,29131,28999,29017,29069,29039,1467,1248,3331,1133,3120,2957,1120,1054,975,834,1305,2649,28916,29039,2147483647,64589,65503,194,1156,10197,1467,52849,3,3,3,2
fist to point,13:15:39.207,29039,7193,3102,1243,1006,1274,747,2052,1274,729,742,1867,2922,29223,29219,29157,29118,29210,1485,1230,3357,1142,3115,2997,1054,1045,1019,799,1296,2667,28863,29078,2147483647,64582,65510,238,1157,10197,1457,52848,3,3,3,2
fist to point,13:15:39.223,28964,7250,3133,1239,1010,1234,742,2043,1226,725,733,1894,2944,29083,29131,29061,29061,29162,1458,1234,3313,1129,3045,2961,1098,1054,975,839,1274,2720,28814,28937,2147483647,64588,65476,256,1164,10184,1454,52838,3,3,3,2
fist to point,13:15:39.407,29175,7242,3102,1243,1015,1261,733,1999,1283,703,747,1885,2931,29232,29346,29210,29223,29364,1463,1252,3335,1168,3049,2944,1125,1054,966,865,1305,2676,28788,29170,2147483647,64549,65479,171,1161,10194,1448,52845,3,3,3,2
fist to point,13:15:39.423,28995,7185,3049,1270,1041,1212,747,2061,1256,747,742,1854,2935,29131,29056,29118,29113,29074,1507,1234,3313,1146,3115,2988,1072,1072,971,896,1256,2715,28801,28995,2147483647,64564,65480,199,1163,10195,1450,52846,3,3,3,2
fist to point,13:15:39.608,29008,7215,3098,1248,1001,1270,716,2069,1230,729,742,1898,2948,29192,29333,29285,29236,29337,1502,1217,3335,1120,3062,2961,1116,1054,1010,861,1252,2676,28920,29003,2147483647,64552,65481,176,1167,10190,1437,52841,3,3,3,2
fist to point,13:15:39.622,29030,7246,3084,1274,1015,1252,689,2069,1234,773,782,1907,2922,29100,29214,29043,29003,29140,1502,1212,3366,1151,3089,2957,1120,1063,1037,861,1296,2654,28797,28981,2147483647,64571,65480,236,1162,10186,1434,52835,3,3,3,2
fist to point,13:15:39.817,28977,7233,3115,1252,1006,1256,738,2061,1239,725,747,1880,2913,29192,29113,29100,29179,29140,1498,1243,3353,1107,3080,2979,1089,1085,988,865,1283,2676,28797,28964,2147483647,64583,65478,204,1154,10177,1438,52827,3,3,3,2
fist to point,13:15:39.908,29135,7189,3111,1274,997,1256,751,2047,1217,760,742,1894,2953,28911,28995,28788,28924,28981,1489,1243,3366,1160,3062,2939,1116,1063,1010,830,1252,2676,29131,29113,2147483647,64586,65512,194,1144,10177,1439,52828,3,3,3,2
fist to point,13:15:40.007,28999,7207,3093,1274,1006,1261,738,2078,1270,716,760,1889,2944,29223,29074,29074,29166,29113,1498,1230,3335,1111,3062,2939,1120,1094,1045,878,1313,2693,28770,28955,2147483647,64589,65512,223,1134,10174,1442,52826,3,3,3,2
rest in point,13:15:40.108,29021,7193,3093,1252,1019,1252,755,2047,1265,733,733,1916,2944,29179,29201,29126,29113,29148,1502,1212,3353,1129,3062,2961,1094,1050,988,856,1309,2707,28819,28999,2147483647,64645,65513,264,1123,10157,1436,52810,3,3,3,2
rest in point,13:15:40.122,28968,7185,3093,1243,1015,1248,747,2008,1256,773,711,1880,2935,29179,29157,29091,29096,29219,1489,1195,3309,1142,3080,2939,1103,1072,1023,839,1327,2680,28749,28898,2147483647,64592,65500,237,1129,10193,1455,52842,3,3,3,2
rest in point,13:15:40.307,28990,7211,3080,1252,984,1265,725,2021,1243,764,747,1880,2909,29153,29245,29126,29118,29166,1507,1243,3322,1133,3054,2939,1107,1072,979,874,1305,2671,28850,28968,2147483647,64626,65486,283,1130,10199,1481,52850,3,3,3,2
rest in point,13:15:40.407,28894,7237,3049,1261,988,1226,733,2034,1265,711,742,1872,2935,29197,29104,29056,29109,29074,1533,1226,3331,1120,3062,2957,1125,1085,1019,856,1274,2689,28801,28929,2147483647,64576,65473,200,1118,10216,1502,52865,3,3,3,2
rest in point,13:15:40.507,29025,7211,3084,1234,1010,1243,747,2083,1265,729,738,1916,2926,29250,29162,29206,29140,29214,1480,1239,3361,1120,3089,2944,1133,1050,1028,830,1270,2715,28863,29008,2147483647,64552,65480,190,1110,10236,1489,52879,3,3,3,2
rest in point,13:15:40.525,28929,7202,3080,1239,962,1248,733,1986,1274,711,742,1902,2939,29153,29175,29043,29061,29170,1480,1221,3344,1094,3062,2970,1098,1028,988,874,1296,2667,28845,29017,2147483647,64574,65480,197,1121,10234,1473,52876,3,3,3,2
rest in point,13:15:40.707,29025,7202,3080,1296,1023,1243,720,2012,1248,764,769,1854,2931,29201,29241,29144,29140,29214,1516,1230,3335,1155,3062,2961,1089,1085,1015,856,1291,2667,28876,29017,2147483647,64552,65482,201,1130,10225,1473,52869,3,3,3,2
rest in point,13:15:40.807,29021,7215,3071,1248,1006,1283,760,2034,1265,738,808,1858,2922,29166,29025,29056,29030,29030,1494,1252,3309,1133,3084,2948,1085,1054,1006,896,1274,2636,28779,28986,2147483647,64551,65465,218,1137,10204,1470,52853,3,3,3,2
rest in point,13:15:40.907,28850,7180,3071,1243,1032,1256,738,2008,1234,755,769,1872,2913,29267,29179,29122,29131,29236,1511,1212,3348,1129,3102,2975,1045,1094,1010,839,1278,2685,28946,28964,2147483647,64586,65477,208,1146,10201,1472,52852,3,3,3,2
rest in point,13:15:41.007,28898,7246,3142,1291,1001,1256,764,2056,1243,764,782,1854,2904,29210,29179,29052,29109,29228,1498,1256,3300,1138,3067,2926,1125,1067,1010,856,1296,2707,28894,28973,2147483647,64558,65476,194,1133,10211,1451,52856,3,3,3,2
rest in point,13:15:41.024,29017,7242,3041,1261,1015,1243,733,1990,1256,725,764,1845,2944,29254,29267,29148,29197,29250,1489,1230,3313,1129,3058,2939,1081,1072,975,861,1274,2702,28850,29003,2147483647,64562,65484,247,1126,10201,1422,52844,3,3,3,2
rest in point,13:15:41.207,28920,7224,3019,1252,1037,1270,760,2017,1278,725,747,1867,2874,29157,29166,29061,29122,29210,1498,1186,3295,1129,3027,2961,1107,1041,1015,839,1270,2676,28810,28920,2147483647,64559,65479,273,1120,10199,1421,52842,3,3,3,2
rest in point,13:15:41.224,28894,7185,3102,1274,1019,1265,782,2039,1261,760,755,1902,2891,29250,29276,29157,29157,29210,1472,1226,3331,1125,3080,2979,1103,1045,1010,931,1270,2729,28814,28850,2147483647,64599,65481,264,1136,10204,1444,52850,3,3,3,2
rest in point,13:15:41.322,28920,7246,3058,1248,1028,1252,755,2021,1274,764,773,1854,2878,29166,29131,29100,29104,29153,1507,1217,3317,1133,3058,2961,1103,1041,1054,817,1296,2707,28784,28819,2147483647,64565,65473,216,1153,10198,1456,52848,3,3,3,2
rest in point,13:15:41.508,28885,7198,3076,1287,1023,1270,755,2043,1300,742,720,1872,2856,29206,29197,29030,29188,29263,1498,1199,3344,1133,3049,2926,1146,1059,1010,852,1278,2702,28749,28819,2147483647,64545,65479,198,1148,10204,1451,52852,3,3,3,2
rest in point,13:15:41.608,28990,7207,3093,1243,1006,1248,747,2012,1248,738,760,1863,2931,29140,29192,29091,29069,29162,1502,1204,3291,1160,3010,2983,1111,1067,997,870,1278,2685,28872,28920,2147483647,64566,65477,229,1144,10199,1442,52846,3,3,3,2
rest in point,13:15:41.718,28885,7272,3062,1252,1050,1261,733,1981,1248,725,764,1889,2917,29166,29153,29061,29065,29179,1472,1234,3335,1142,3032,2939,1103,1010,1054,870,1309,2689,28858,28867,2147483647,64565,65467,256,1136,10188,1440,52837,3,3,3,2
rest in point,13:15:41.734,29083,7220,3058,1265,1001,1283,729,2017,1243,738,742,1894,2904,28898,29017,28770,28845,29056,1502,1256,3331,1164,3098,2970,1120,1045,993,843,1318,2658,29039,29043,2147483647,64542,65464,192,1135,10200,1430,52845,3,3,3,2
rest in point,13:15:41.823,28845,7250,3102,1256,988,1239,742,2012,1274,751,729,1863,2904,29214,29140,29061,29047,29162,1538,1256,3304,1164,3080,2961,1125,1041,1023,870,1256,2658,28924,28902,2147483647,64554,65467,185,1132,10201,1433,52846,3,3,3,2
rest in point,13:15:42.008,28951,7250,3058,1221,988,1248,773,2047,1256,725,773,1867,2913,29228,29197,29113,29083,29144,1450,1270,3313,1129,3014,2948,1133,1054,1015,848,1283,2667,28841,28911,2147483647,64576,65469,187,1127,10201,1437,52845,3,3,3,2
rest in point,13:15:42.108,28858,7185,3106,1287,1015,1252,733,2043,1204,786,738,1880,2847,29153,29271,29157,29197,29302,1489,1296,3282,1138,3093,2953,1146,1072,993,843,1270,2702,28867,28814,2147483647,64556,65494,177,1127,10209,1428,52852,3,3,3,2
rest in point,13:15:42.207,28955,7237,3032,1265,997,1252,725,2065,1234,755,764,1889,2895,29258,29232,29122,29144,29206,1472,1252,3295,1155,3071,2935,1111,1037,984,878,1309,2680,28929,28946,2147483647,64541,65485,205,1125,10207,1436,52850,3,3,3,2
rest in point,13:15:42.307,28867,7185,3071,1261,988,1230,751,1981,1252,747,769,1902,2904,29241,29285,29126,29096,29337,1485,1204,3287,1164,3093,2935,1076,1028,1006,865,1274,2667,28823,28858,2147483647,64578,65496,217,1128,10208,1430,52851,3,3,3,2
rest in point,13:15:42.407,28955,7220,3067,1296,1010,1248,738,2056,1243,685,812,1885,2874,29219,29324,29223,29232,29364,1494,1208,3273,1164,3001,2979,1116,1076,979,856,1291,2671,28885,28898,2147483647,64571,65493,194,1126,10204,1444,52849,3,3,3,2
rest in point,13:15:42.507,28907,7198,3045,1270,1015,1234,773,2003,1234,777,725,1841,2913,29170,29157,29021,29039,29179,1489,1261,3282,1111,3041,2944,1120,1041,984,839,1274,2720,28810,28863,2147483647,64587,65494,209,1121,10215,1445,52858,3,3,3,2
rest in point,13:15:42.607,28863,7198,3076,1274,1032,1234,733,1995,1239,773,755,1858,2939,29236,29241,29157,29126,29232,1502,1221,3313,1146,3032,2966,1063,1063,997,834,1261,2711,28775,28885,2147483647,64599,65483,200,1119,10217,1452,52860,3,3,3,2
rest in point,13:15:42.708,28964,7224,3071,1256,1023,1243,747,2025,1248,733,755,1885,2922,29166,29140,29069,29091,29166,1476,1217,3304,1146,3027,2961,1098,1059,1032,848,1221,2676,28880,28951,2147483647,64597,65487,194,1110,10226,1456,52866,3,3,3,2
rest in point,13:15:42.818,28850,7198,3062,1252,979,1274,733,1977,1270,755,782,1867,2856,29232,29342,29118,29162,29329,1502,1208,3309,1182,3014,2957,1125,1028,993,856,1305,2689,28850,28819,2147483647,64588,65451,222,1108,10222,1468,52864,3,3,3,2
rest in point,13:15:42.908,29104,7202,3032,1256,1045,1195,716,1973,1265,747,782,1876,2882,29069,29144,28876,28946,29144,1450,1243,3309,1155,3080,2983,1103,1028,971,843,1265,2627,29034,29083,2147483647,64557,65462,224,1102,10236,1462,52874,3,3,3,2
rest in point,13:15:43.007,29087,7193,3071,1230,993,1270,725,2017,1226,760,764,1876,2935,29043,29074,28656,28718,29052,1463,1221,3273,1146,3058,2953,1142,1076,1037,839,1353,2671,29188,29069,2147483647,64540,65458,209,1112,10241,1453,52879,3,3,3,2
rest in point,13:15:43.107,28885,7220,3054,1261,1015,1248,738,2043,1217,747,773,1902,2865,29197,29153,29096,29104,29170,1489,1256,3300,1129,3049,2975,1155,1111,984,870,1291,2663,28924,28911,2147483647,64574,65471,189,1124,10229,1454,52870,3,3,3,2
rest in point,13:15:43.207,28845,7255,3062,1283,1001,1265,738,2043,1261,738,747,1916,2860,29175,29293,29025,29087,29258,1485,1177,3317,1146,3014,2961,1063,1059,984,848,1305,2667,28845,28911,2147483647,64557,65497,206,1137,10222,1442,52864,3,3,3,2
rest in point,13:15:43.307,28885,7189,3036,1230,1010,1248,725,2008,1234,742,751,1841,2869,29175,29351,29210,29236,29342,1472,1234,3265,1111,3054,2970,1085,1032,1015,830,1270,2663,29087,28894,2147483647,64563,65477,212,1143,10224,1439,52866,3,3,3,2
rest in point,13:15:43.322,28863,7259,3014,1243,993,1243,760,2012,1274,764,773,1876,2874,29166,29179,29083,29087,29206,1494,1204,3282,1094,2997,2922,1098,1072,979,848,1300,2671,28858,28898,2147483647,64589,65498,199,1141,10224,1438,52866,3,3,3,2
rest in point,13:15:43.507,28867,7176,3062,1243,997,1217,742,1990,1243,720,742,1863,2852,29219,29223,29285,29245,29258,1458,1212,3282,1160,3005,2966,1142,1081,1015,874,1318,2671,28832,28854,2147483647,64553,65496,198,1142,10221,1433,52863,3,3,3,2
rest in point,13:15:43.608,28819,7158,3032,1252,1015,1265,729,2052,1239,755,725,1854,2909,29135,29188,29188,29135,29144,1498,1234,3331,1168,3023,2931,1050,1050,1006,834,1291,2654,28867,28823,2147483647,64564,65464,223,1137,10219,1437,52861,3,3,3,2
rest in point,13:15:43.622,28889,7193,3032,1278,1010,1252,729,2021,1252,729,782,1898,2895,29241,29236,29206,29241,29219,1498,1208,3322,1116,3010,2966,1081,1067,1006,870,1270,2698,28876,28924,2147483647,64579,65477,235,1132,10219,1439,52861,3,3,3,2
rest in point,13:15:43.726,28806,7242,3023,1291,1032,1243,733,2043,1287,694,777,1885,2926,29184,29157,29074,29065,29184,1489,1234,3295,1133,3071,2944,1116,1050,1045,839,1278,2676,28858,28858,2147483647,64552,65479,227,1132,10197,1429,52842,3,3,3,2
rest in point,13:15:43.832,28995,7198,3001,1256,988,1270,755,2061,1248,747,769,1889,2891,28964,28749,28995,29056,28766,1480,1217,3300,1160,3001,2953,1103,1072,1006,852,1309,2636,29021,29025,2147483647,64581,65462,226,1132,10209,1437,52853,3,3,3,2
rest in point,13:15:44.007,29043,7220,3027,1256,997,1270,742,2025,1274,747,760,1898,2895,28955,28911,29083,29052,28964,1463,1243,3291,1120,3010,2917,1085,1059,1015,883,1296,2689,29100,29012,2147483647,64556,65470,232,1141,10211,1433,52854,3,3,3,2
rest in point,13:15:44.107,28858,7185,3032,1226,1019,1248,738,1959,1256,729,764,1880,2891,29197,29236,29109,29126,29232,1450,1221,3243,1155,3019,2878,1160,1037,1019,874,1283,2685,28964,28836,2147483647,64520,65458,203,1143,10216,1436,52859,3,3,3,2
rest in point,13:15:44.207,28867,7211,3019,1230,1023,1265,716,1990,1239,747,764,1885,2860,29126,29153,29039,29078,29135,1476,1204,3287,1116,3005,2953,1081,1023,1028,821,1252,2667,28981,28841,2147483647,64542,65456,238,1139,10226,1420,52865,3,3,3,2
rest in point,13:15:44.308,28819,7158,3027,1265,1015,1230,720,2008,1256,738,711,1819,2887,29223,29214,29087,29113,29228,1494,1221,3287,1107,3019,2953,1142,1076,975,852,1252,2658,28946,28823,2147483647,64536,65464,213,1139,10221,1413,52860,3,3,3,2
rest in point,13:15:44.407,28898,7193,3054,1274,997,1261,738,2056,1190,742,760,1880,2887,29166,29188,29087,29087,29096,1441,1230,3348,1116,3080,2913,1142,1076,1028,848,1283,2680,28924,28898,2147483647,64540,65493,195,1138,10226,1417,52864,3,3,3,2
rest in point,13:15:44.507,28845,7127,3058,1278,979,1252,725,2047,1270,755,742,1867,2909,29179,29206,29047,29043,29175,1480,1230,3282,1151,3001,2935,1098,1054,1023,883,1261,2693,28981,28854,2147483647,64535,65483,182,1136,10238,1435,52876,3,3,3,2
rest in point,13:15:44.608,28916,7167,3010,1243,984,1261,760,2030,1234,716,773,1858,2878,29206,29219,29135,29144,29166,1467,1252,3273,1125,3010,2961,1146,1094,997,848,1291,2671,28990,28907,2147483647,64573,65497,169,1131,10223,1429,52863,3,3,3,2
rest in point,13:15:44.707,28911,7176,3014,1256,1006,1248,747,2030,1252,711,720,1863,2847,29078,29170,29166,29166,29118,1454,1208,3278,1151,3041,2904,1072,1050,1006,839,1283,2671,28942,28894,2147483647,64577,65492,204,1129,10215,1441,52858,3,3,3,2
rest in point,13:15:44.724,28933,7180,3014,1261,1019,1270,733,1995,1248,782,769,1858,2843,29223,29201,29104,29087,29210,1472,1208,3326,1155,3036,2913,1089,1054,975,830,1256,2654,29034,28920,2147483647,64587,65493,166,1119,10227,1472,52870,3,3,3,2
rest in point,13:15:44.823,28854,7149,3049,1243,997,1217,764,1955,1221,742,725,1823,2900,29148,29192,29170,29175,29175,1498,1239,3265,1160,3005,2926,1107,1041,993,839,1252,2632,28977,28845,2147483647,64602,65487,169,1110,10234,1482,52876,3,3,3,2
point to fist,13:15:45.008,28872,7171,3010,1278,975,1265,720,2039,1261,707,733,1854,2887,29373,29219,29214,29228,29241,1516,1248,3251,1098,3005,2953,1120,1045,993,878,1270,2641,29012,28885,2147483647,64601,65503,206,1112,10230,1471,52872,3,3,3,2
point to fist,13:15:45.108,28867,7180,3058,1256,1019,1270,729,2025,1252,725,725,1872,2878,29201,29153,29061,29096,29126,1458,1234,3256,1098,3032,2992,1081,1063,1023,852,1296,2645,28880,28841,2147483647,64582,65471,225,1116,10235,1477,52877,3,3,3,2
point to fist,13:15:45.208,28836,7171,3023,1252,1019,1283,733,2069,1248,747,747,1894,2852,29197,29228,29104,29118,29219,1520,1204,3269,1142,3014,2944,1107,1041,1041,856,1287,2654,28964,28889,2147483647,64578,65474,225,1119,10237,1481,52879,3,3,3,2
point to fist,13:15:45.307,28880,7136,3027,1270,1023,1248,760,2003,1252,733,751,1854,2887,29166,29153,29052,29052,29192,1485,1248,3247,1116,2970,2931,1111,1059,984,839,1300,2689,28907,28872,2147483647,64540,65492,201,1125,10234,1475,52877,3,3,3,2
point to fist,13:15:45.407,28885,7158,2975,1270,1006,1252,769,2003,1234,755,764,1858,2878,29135,29245,29271,29263,29245,1476,1265,3282,1111,3027,2970,1103,1041,1037,861,1309,2654,29021,28933,2147483647,64570,65470,211,1123,10242,1476,52883,3,3,3,2
point to fist,13:15:45.507,28946,7149,3027,1274,1006,1221,698,2025,1239,711,733,1885,2865,29188,29162,29153,29192,29126,1494,1230,3260,1138,3005,2961,1094,1072,1001,852,1313,2663,28999,28907,2147483647,64578,65476,223,1120,10233,1464,52874,3,3,3,2
point to fist,13:15:45.607,28858,7189,3045,1270,1010,1186,707,2034,1252,729,755,1885,2860,29184,29241,29276,29214,29245,1472,1221,3304,1125,3023,2922,1094,1081,1001,848,1265,2636,28872,28819,2147483647,64528,65459,166,1132,10223,1481,52869,3,3,3,2
point to fist,13:15:45.707,29012,7193,3014,1256,1023,1252,769,2017,1265,747,703,1858,2865,29065,29113,29271,29307,29162,1489,1239,3260,1138,3089,2926,1107,1059,984,843,1331,2685,29061,28898,2147483647,64587,65484,197,1131,10211,1479,52859,3,3,3,2
point to fist,13:15:45.807,28863,7224,3027,1239,1023,1291,720,2021,1239,751,707,1894,2882,29223,29188,29201,29170,29245,1489,1256,3265,1103,3019,2944,1094,1067,1019,865,1309,2641,28942,28854,2147483647,64569,65486,235,1123,10220,1477,52866,3,3,3,2
point to fist,13:15:45.907,28916,7154,3023,1239,1037,1243,733,2021,1261,760,747,1880,2874,29104,29241,29263,29241,29118,1502,1261,3273,1120,3102,2961,1098,1054,975,852,1261,2676,28995,28920,2147483647,64598,65446,265,1124,10213,1482,52861,3,3,3,2
point to fist,13:15:46.008,28876,7158,3027,1270,1023,1278,747,2056,1221,777,760,1889,2874,29148,29148,29148,29140,29197,1472,1252,3300,1146,3102,2948,1103,1072,988,870,1327,2636,29017,28814,2147483647,64559,65481,183,1146,10224,1490,52872,3,3,3,2
point to fist,13:15:46.108,28920,7105,3062,1256,1006,1248,729,2039,1230,742,755,1902,2865,29219,29228,29162,29162,29188,1472,1226,3300,1133,3036,2966,1111,1059,1010,843,1265,2685,29021,28902,2147483647,64596,65457,199,1155,10231,1503,52881,3,3,3,2
point to fist,13:15:46.218,29087,7149,3019,1248,997,1283,733,2069,1212,733,742,1845,2882,29021,29012,28854,28973,29030,1467,1261,3291,1125,3089,2961,1094,1103,988,861,1278,2680,29188,29096,2147483647,64592,65492,211,1162,10236,1502,52885,3,3,3,2
point to fist,13:15:46.308,29100,7154,2992,1208,1015,1217,755,2061,1234,742,742,1850,2909,29228,28973,29074,29096,28894,1507,1212,3300,1111,3045,2970,1094,1032,1006,878,1296,2685,29100,29100,2147483647,64560,65482,175,1174,10248,1500,52895,3,3,3,2
point to fist,13:15:46.418,28867,7176,3010,1261,997,1261,729,2052,1261,760,733,1880,2874,29039,29206,29197,29153,29188,1511,1217,3317,1120,3054,2895,1151,1063,984,834,1287,2680,28937,28876,2147483647,64576,65496,203,1184,10251,1499,52898,3,3,3,1
point to fist,13:15:46.508,29192,7176,3041,1261,1015,1212,747,2003,1265,751,742,1885,2882,29184,29109,29052,29091,29069,1494,1204,3291,1151,3054,2979,1107,1063,979,861,1261,2654,29219,29175,2147483647,64541,65460,241,1191,10248,1502,52897,3,3,3,1
point to fist,13:15:46.608,28858,7163,3001,1239,1028,1274,729,2034,1221,733,755,1885,2874,28727,29179,29131,29100,29162,1511,1195,3256,1116,3062,2935,1085,1050,993,848,1265,2645,28920,28880,2147483647,64551,65455,230,1187,10243,1499,52893,3,3,3,1
point to fist,13:15:46.624,28898,7132,3032,1239,1023,1248,738,2065,1243,738,760,1872,2882,28850,29241,29201,29250,29228,1538,1270,3295,1146,3089,2913,1182,1107,984,834,1291,2663,29025,28920,2147483647,64564,65497,182,1190,10254,1496,52901,3,3,3,1
point to fist,13:15:46.808,29122,7110,3019,1274,966,1234,760,2087,1256,755,733,1867,2830,29175,29012,29012,29100,29025,1458,1234,3282,1133,3058,2926,1120,1111,1023,905,1256,2676,29157,29074,2147483647,64599,65500,206,1198,10258,1511,52907,3,3,3,1
point to fist,13:15:46.908,28898,7167,2988,1230,988,1256,751,2047,1234,733,755,1876,2856,28876,29232,29337,29359,29258,1480,1186,3309,1116,3019,2935,1050,1059,1010,848,1283,2667,29104,28828,2147483647,64597,65491,206,1201,10260,1522,52910,3,3,3,1
point to fist,13:15:46.924,28902,7123,2970,1252,1037,1256,725,2061,1248,760,769,1876,2843,28770,29122,29096,29078,29188,1485,1217,3260,1129,3027,2935,1107,1045,975,826,1283,2632,29003,28924,2147483647,64571,65478,226,1202,10269,1525,52918,3,3,3,1
point to fist,13:15:47.117,28845,7145,2983,1226,953,1252,751,2078,1212,755,720,1841,2860,28999,29267,29311,29293,29223,1472,1239,3212,1076,3054,2904,1063,1076,993,861,1300,2663,28973,28854,2147483647,64568,65442,277,1200,10274,1535,52923,3,3,3,1
point to fist,13:15:47.207,29017,7141,2997,1283,1023,1239,733,2047,1234,725,782,1880,2882,29144,28885,29008,29034,28880,1494,1226,3295,1190,3062,2931,1120,1098,975,826,1300,2649,29267,29087,2147483647,64532,65479,192,1209,10279,1540,52929,3,3,3,1
point to fist,13:15:47.307,29140,7123,2983,1291,1019,1248,742,2061,1252,751,791,1902,2913,29179,28981,28841,28951,28986,1489,1212,3247,1111,3032,2997,1103,1103,971,874,1291,2689,29135,29118,2147483647,64563,65441,208,1220,10280,1549,52931,3,3,3,1
point to fist,13:15:47.417,28937,7154,2975,1274,1019,1283,755,2034,1234,760,738,1850,2913,28995,29109,29179,29206,29140,1507,1252,3247,1129,3014,2983,1089,1050,988,834,1278,2680,29003,28898,2147483647,64565,65492,203,1226,10273,1545,52926,3,3,3,1
point to fist,13:15:47.432,28951,7132,2997,1243,979,1261,694,2017,1234,703,755,1854,2874,29219,28894,29052,29021,28986,1494,1265,3256,1138,3019,2961,1129,1076,984,848,1296,2711,29056,28964,2147483647,64593,65479,184,1241,10272,1550,52927,3,3,3,1
point to fist,13:15:47.608,28920,7149,3010,1261,1006,1256,720,2052,1248,742,747,1889,2917,28819,29254,29276,29263,29263,1458,1221,3278,1103,3019,2953,1111,1063,1028,848,1278,2667,28968,28929,2147483647,64599,65485,219,1244,10267,1548,52923,3,3,3,1
point to fist,13:15:47.708,28867,7132,2983,1265,1015,1239,716,2069,1234,738,742,1876,2865,28854,29170,29206,29188,29126,1489,1243,3243,1107,3058,2957,1098,1041,1006,856,1265,2649,28942,28885,2147483647,64556,65445,235,1258,10240,1538,52902,3,3,3,1
point to fist,13:15:47.807,28911,7171,2948,1204,1032,1252,747,2047,1212,738,764,1854,2874,28779,29250,29342,29337,29254,1485,1252,3282,1138,3058,2961,1089,1089,988,861,1248,2623,29087,28933,2147483647,64575,65491,185,1265,10212,1523,52878,3,3,3,1
point to fist,13:15:47.907,28880,7145,2957,1265,988,1256,733,2030,1177,716,747,1850,2856,28740,29170,29135,29157,29144,1511,1221,3291,1107,3010,2961,1059,1076,979,817,1283,2641,29030,28845,2147483647,64580,65493,174,1290,10200,1527,52871,3,3,3,1
point to fist,13:15:48.007,28929,7154,2970,1252,1006,1261,694,2034,1230,751,738,1854,2891,28885,29223,29355,29333,29223,1463,1199,3265,1107,3014,2948,1103,1041,962,821,1256,2645,29100,28916,2147483647,64595,65506,195,1311,10186,1522,52861,3,3,3,1
point to fist,13:15:48.107,28832,7180,3027,1256,997,1265,769,2052,1217,729,733,1823,2909,28995,29184,29214,29206,29153,1516,1212,3256,1089,3032,2909,1089,1019,1015,861,1252,2636,29039,28819,2147483647,64612,65527,217,1329,10163,1516,52844,3,3,3,1
point to fist,13:15:48.207,28898,7171,3023,1221,988,1252,742,2034,1252,755,773,1841,2917,28762,29219,29258,29228,29206,1472,1248,3265,1107,3023,2926,1103,1076,1019,817,1274,2689,29113,28885,2147483647,64565,65496,202,1348,10166,1524,52849,3,3,3,1
point to fist,13:15:48.308,28907,7176,2979,1230,1019,1239,716,2008,1234,751,720,1880,2874,28731,29148,29162,29113,29166,1476,1230,3256,1133,3014,2922,1103,1076,1006,883,1283,2685,29034,28867,2147483647,64618,65485,248,1347,10153,1533,52840,3,3,3,1
point to fist,13:15:48.408,28836,7171,3032,1234,1019,1243,733,2061,1265,711,786,1880,2887,28946,29197,29320,29337,29245,1498,1226,3243,1120,2979,2922,1063,1054,975,856,1270,2671,29069,28894,2147483647,64566,65473,277,1352,10185,1553,52869,3,3,3,1
point to fist,13:15:48.508,28911,7185,3054,1204,993,1261,733,2091,1248,738,729,1889,2865,28810,29157,29320,29289,29157,1489,1256,3304,1120,3005,2944,1125,1028,993,848,1261,2671,29201,28880,2147483647,64536,65469,228,1357,10191,1562,52875,3,3,3,1
point to fist,13:15:48.533,28894,7202,3093,1248,984,1230,755,2078,1208,733,733,1898,2847,28810,29245,29381,29342,29254,1445,1239,3243,1116,2988,2944,1059,1063,1019,848,1287,2680,29118,28854,2147483647,64566,65472,212,1343,10203,1557,52883,3,3,3,1
point to fist,13:15:48.708,28968,7185,3067,1274,1019,1278,720,2069,1283,738,764,1867,2847,28784,29241,29302,29250,29197,1485,1230,3229,1098,3001,2970,1081,1072,997,856,1252,2654,29096,28933,2147483647,64563,65480,197,1339,10216,1572,52895,3,3,3,1
point to fist,13:15:48.808,28858,7211,3084,1221,997,1239,711,2034,1195,729,729,1845,2882,28898,29118,29153,29232,29157,1489,1243,3238,1129,2988,2913,1116,1050,993,861,1278,2663,29052,28854,2147483647,64584,65492,189,1346,10233,1575,52910,3,3,3,1
