Scenario,Time,P0,P1,P2,P3,P4,P5,P6,P7,P8,P9,P10,P11,P12,P13,P14,P15,P16,P17,P18,P19,P20,P21,P22,P23,P24,P25,P26,P27,P28,P29,P30,P31,ECG,AX,AY,AZ,QW,QX,QY,QZ,CS,CA,CG,CM
paper,13:03:00.099,29197,7066,2953,1340,900,1283,791,2003,1265,747,703,1964,3111,29140,29157,29126,29034,29175,1524,1234,3291,1125,2399,2878,1098,1072,1010,878,1309,2759,29179,29131,2147483647,64558,60,65522,1191,11714,364,54149,3,3,3,2
paper,13:03:00.199,29056,7097,2909,1366,909,1261,773,1981,1252,773,720,1968,3164,29039,29122,28867,29012,29157,1533,1256,3216,1120,2377,2843,1160,1107,1010,843,1322,2790,29017,29083,2147483647,64564,62,65519,1189,11706,366,54140,3,3,3,2
paper,13:03:00.299,29104,7097,2895,1322,922,1248,804,1968,1230,742,742,1964,3146,29157,29184,29197,28907,29197,1516,1248,3234,1146,2373,2821,1142,1050,1006,870,1366,2786,29197,29131,2147483647,64549,59,65519,1193,11710,365,54145,3,3,3,2
paper,13:03:00.314,29271,7101,2931,1340,896,1234,804,1964,1261,769,729,1946,3146,29148,29100,29104,28968,29140,1533,1234,3234,1133,2337,2834,1160,1072,1023,865,1300,2812,29113,29069,2147483647,64549,68,65522,1199,11706,357,54141,3,3,3,2
paper,13:03:00.499,29157,7088,2900,1331,900,1261,782,1995,1248,729,733,1942,3137,29135,29201,29179,29192,29201,1516,1256,3238,1146,2337,2869,1129,1098,1023,856,1327,2759,29126,29100,2147483647,64542,56,65525,1202,11703,354,54138,3,3,3,2
paper,13:03:00.599,29210,7110,2917,1318,887,1291,799,1986,1252,764,791,1973,3128,29126,29100,29091,29047,29109,1516,1248,3221,1142,2355,2808,1120,1111,997,870,1327,2790,29170,29210,2147483647,64553,64,65528,1201,11700,354,54135,3,3,3,2
paper,13:03:00.615,29034,7119,2904,1335,861,1256,817,2012,1199,791,760,1951,3181,29052,29157,29109,29083,29228,1538,1234,3225,1120,2373,2847,1129,1098,1032,918,1318,2755,29003,29069,2147483647,64553,70,65525,1200,11697,353,54132,3,3,3,2
paper,13:03:00.799,28959,7066,2887,1340,927,1270,817,2017,1300,755,764,1959,3128,29276,29359,29329,29289,29421,1524,1204,3225,1142,2386,2834,1138,1085,1006,865,1300,2768,29083,28744,2147483647,64549,66,65535,1198,11696,351,54130,3,3,3,2
paper,13:03:00.899,29214,7079,2926,1322,914,1283,843,1986,1182,742,769,1951,3128,29078,29126,29091,29126,29078,1577,1239,3256,1177,2386,2860,1125,1067,1028,887,1278,2759,29083,29228,2147483647,64551,58,65521,1196,11696,348,54130,3,3,3,2
paper,13:03:00.998,29276,7083,2917,1353,905,1278,804,1955,1278,733,733,1999,3159,29166,29166,29210,29153,29188,1560,1256,3093,1155,2364,2834,1125,1085,997,892,1296,2764,29232,29236,2147483647,64560,60,65519,1189,11696,352,54130,3,3,3,2
paper,13:03:01.013,29175,7075,2904,1322,900,1270,804,1973,1261,725,764,1911,3120,29113,29140,29096,29104,29118,1524,1217,3229,1155,2381,2838,1094,1125,1050,900,1335,2768,29258,29065,2147483647,64558,58,65528,1188,11698,351,54132,3,3,3,2
paper,13:03:01.115,29245,7105,2865,1340,870,1256,821,1995,1265,782,751,1977,3150,29140,29170,29153,29131,29144,1507,1248,3247,1146,2377,2821,1160,1103,984,852,1357,2768,29175,29245,2147483647,64562,61,65529,1188,11699,351,54133,3,3,3,2
paper,13:03:01.299,29179,7079,2926,1318,927,1278,843,2012,1291,773,755,2012,3150,29069,29135,29157,29118,29157,1511,1252,3212,1133,2329,2821,1103,1050,1001,856,1300,2759,29118,29184,2147483647,64553,59,65520,1188,11702,352,54136,3,3,3,2
paper,13:03:01.313,29245,7057,2922,1353,878,1252,782,1999,1287,760,711,2008,3115,29126,29056,29144,29140,29065,1533,1256,3216,1120,2359,2865,1142,1059,1032,861,1335,2786,29184,29232,2147483647,64559,57,65514,1189,11700,352,54134,3,3,3,2
paper,13:03:01.499,29179,7035,2944,1322,892,1274,799,1981,1217,733,733,1942,3115,29166,28995,29078,29144,29025,1533,1221,3234,1164,2359,2808,1125,1085,1028,865,1331,2768,29083,29192,2147483647,64564,67,65527,1183,11704,353,54137,3,3,3,2
paper,13:03:01.599,29241,7110,2895,1318,914,1261,826,1981,1195,755,729,2003,3124,29157,28999,29188,29144,28924,1529,1248,3243,1129,2395,2843,1151,1085,1023,883,1349,2821,29302,29263,2147483647,64553,54,65516,1180,11709,348,54142,3,3,3,2
paper,13:03:01.699,29179,7066,2900,1305,896,1270,799,1981,1270,711,817,1973,3164,29074,28924,29109,29091,28955,1533,1239,3155,1120,2373,2803,1129,1059,1023,856,1309,2715,29087,29166,2147483647,64562,52,65517,1178,11712,349,54145,3,3,3,2
paper,13:03:01.799,29175,7088,2939,1388,909,1265,812,2047,1265,769,751,1959,3128,29148,28959,29162,29197,29025,1533,1221,3221,1151,2364,2856,1151,1072,1006,870,1331,2746,29140,29122,2147483647,64558,61,65534,1178,11714,349,54147,3,3,3,2
paper,13:03:01.899,29245,7110,2891,1362,905,1230,786,1990,1248,747,729,1924,3124,29122,28929,29122,29118,28959,1524,1248,3269,1151,2355,2834,1142,1076,1023,865,1340,2786,29219,29223,2147483647,64539,59,65519,1178,11714,349,54147,3,3,3,2
paper,13:03:01.999,29201,7105,2917,1309,940,1256,799,1981,1221,751,760,1946,3124,29153,28955,29126,29206,28990,1529,1256,3256,1111,2359,2843,1107,1089,1037,852,1309,2764,29206,29192,2147483647,64550,65,65521,1180,11711,347,54144,3,3,3,2
paper,13:03:02.099,29236,7075,2926,1305,874,1270,808,2012,1248,769,769,1995,3128,29144,29034,29192,29162,28973,1502,1234,3234,1160,2342,2843,1120,1081,1023,834,1322,2759,29267,29232,2147483647,64557,63,65524,1181,11712,349,54145,3,3,3,2
paper,13:03:02.199,29012,7070,2926,1322,900,1243,799,2025,1291,733,733,1942,3159,28959,28951,29091,29087,28981,1529,1239,3212,1146,2333,2834,1129,1107,1001,878,1322,2768,29003,29039,2147483647,64546,68,65519,1181,11718,350,54152,3,3,3,2
paper,13:03:02.299,29144,7110,2979,1322,918,1283,834,1977,1252,711,716,1946,3115,29025,29012,29144,29214,29021,1511,1230,3243,1151,2320,2812,1142,1089,1050,843,1322,2755,29118,29157,2147483647,64545,61,65515,1181,11727,351,54161,3,3,3,2
paper,13:03:02.314,29100,7079,2939,1305,931,1265,812,1990,1252,760,760,1924,3128,29034,28977,29083,29118,28968,1511,1243,3199,1142,2364,2860,1116,1098,1045,870,1318,2733,29052,29131,2147483647,64547,64,65525,1180,11733,350,54167,3,3,3,2
paper,13:03:02.498,29232,7088,2904,1327,874,1256,804,2003,1252,773,725,1955,3150,29184,29043,29122,29113,29096,1524,1265,3247,1138,2311,2808,1146,1072,1023,887,1344,2764,29276,29228,2147483647,64556,47,65514,1178,11730,348,54164,3,3,3,2
paper,13:03:02.599,29197,7092,2895,1309,936,1274,821,2025,1305,747,716,1981,3102,29122,28981,29166,29126,28973,1524,1226,3212,1160,2315,2843,1098,1081,1041,914,1318,2759,29298,29223,2147483647,64561,63,65527,1173,11736,355,54169,3,3,3,2
paper,13:03:02.699,29206,7035,2891,1331,878,1261,782,1973,1261,808,760,1964,3133,29223,29025,29188,29175,29034,1511,1243,3216,1142,2337,2816,1133,1089,1028,856,1318,2715,29307,29170,2147483647,64558,64,65529,1173,11741,355,54175,3,3,3,2
paper,13:03:02.799,29074,7083,2926,1362,900,1278,817,1986,1256,777,733,1964,3111,29074,29012,29069,29122,29043,1555,1283,3243,1125,2333,2838,1146,1059,1059,909,1313,2772,29083,29056,2147483647,64554,60,65518,1173,11738,355,54172,3,3,3,2
paper,13:03:02.899,29157,7044,2953,1313,905,1226,786,2012,1243,760,755,1986,3150,29100,29043,29206,29175,29069,1476,1239,3216,1177,2333,2860,1076,1085,997,861,1309,2803,29381,29188,2147483647,64556,61,65526,1173,11742,355,54176,3,3,3,2
paper,13:03:02.999,29228,7092,2891,1305,905,1270,812,2012,1274,703,747,2043,3177,29074,28981,29065,29087,29034,1520,1256,3265,1111,2329,2794,1120,1103,1032,892,1327,2764,29293,29250,2147483647,64566,63,65526,1170,11739,358,54172,3,3,3,2
paper,13:03:03.099,29201,7083,2909,1366,900,1252,777,2008,1252,769,760,1955,3142,29096,29056,29170,29184,29074,1524,1230,3238,1182,2337,2834,1195,1041,1045,870,1331,2808,29285,29157,2147483647,64546,59,65511,1168,11744,361,54178,3,3,3,2
paper,13:03:03.199,29201,7070,2931,1296,887,1256,830,1973,1261,733,729,1942,3128,29118,28955,29096,29131,28977,1524,1234,3225,1160,2355,2834,1120,1107,997,914,1322,2790,29276,29206,2147483647,64557,52,65517,1159,11741,368,54173,3,3,3,2
paper,13:03:03.299,29170,7092,2966,1331,931,1261,839,2003,1252,716,755,1933,3102,29214,29052,29131,29153,29087,1480,1243,3199,1146,2355,2812,1129,1085,958,883,1270,2746,29206,29144,2147483647,64548,52,65516,1148,11742,364,54174,3,3,3,2
paper,13:03:03.399,29223,7097,2878,1318,909,1283,812,2056,1256,720,764,1959,3146,29118,28968,29131,29074,28986,1498,1230,3221,1146,2320,2852,1120,1107,1023,887,1340,2746,29355,29223,2147483647,64550,55,65515,1143,11730,367,54161,3,3,3,2
paper,13:03:03.499,29236,7057,2882,1327,918,1274,791,2017,1287,738,742,1995,3146,29153,28968,29135,29091,29012,1564,1243,3225,1120,2333,2825,1138,1063,1063,878,1322,2759,29219,29188,2147483647,64561,54,65520,1136,11727,369,54157,3,3,3,2
paper,13:03:03.599,29250,7070,2891,1335,883,1287,786,1990,1291,751,782,1959,3124,29162,29056,29157,29091,28995,1507,1243,3256,1155,2346,2816,1125,1072,1032,826,1322,2768,29285,29245,2147483647,64547,56,65523,1135,11718,373,54147,3,3,3,2
paper,13:03:03.699,29206,7066,2917,1318,909,1335,812,1999,1261,769,738,1968,3128,29109,29025,29078,29096,29039,1546,1243,3199,1125,2289,2834,1107,1067,1001,865,1318,2777,29214,29206,2147483647,64552,55,65521,1132,11715,376,54145,3,3,3,2
paper,13:03:03.799,29254,7110,2939,1340,909,1248,826,1999,1252,760,720,2003,3120,29188,29008,29144,29153,28986,1498,1226,3238,1111,2320,2838,1142,1067,1023,878,1313,2799,29337,29232,2147483647,64552,58,65522,1131,11714,378,54143,3,3,3,2
paper,13:03:03.899,29197,7070,2939,1305,927,1261,769,2017,1248,729,747,1959,3128,29170,28981,29091,29074,28999,1546,1252,3194,1133,2315,2847,1133,1076,997,861,1327,2724,29201,29184,2147483647,64550,52,65513,1128,11710,381,54139,3,3,3,2
paper,13:03:04.009,29140,7044,2931,1335,905,1230,817,1990,1291,729,764,1973,3102,29206,29078,29184,29219,29083,1533,1270,3203,1138,2324,2874,1089,1067,979,856,1318,2768,29192,29179,2147483647,64555,44,65509,1127,11713,384,54141,3,3,3,2
paper,13:03:04.099,29025,7062,2917,1313,936,1309,812,1973,1296,738,764,1964,3128,29162,29179,29250,29254,29109,1524,1256,3199,1155,2324,2856,1129,1072,1050,852,1335,2790,28973,29056,2147483647,64555,61,65525,1122,11715,387,54144,3,3,3,2
paper,13:03:04.115,29100,7070,2865,1357,914,1243,799,2008,1230,733,738,1920,3124,29271,29074,29126,29166,29061,1538,1230,3229,1094,2307,2869,1142,1059,1001,843,1331,2755,29408,29250,2147483647,64557,53,65520,1112,11716,398,54144,3,3,3,2
paper,13:03:04.299,29188,7053,2878,1322,896,1243,760,2012,1217,729,773,1946,3111,29188,29078,29025,29135,29061,1524,1265,3269,1151,2307,2895,1138,1067,1041,874,1357,2790,29245,29170,2147483647,64553,47,65516,1104,11723,407,54150,3,3,3,2
paper,13:03:04.399,29179,7022,2935,1340,896,1291,804,1999,1252,747,755,1942,3089,29267,29091,29175,29170,29034,1542,1230,3221,1155,2315,2803,1120,1111,1019,874,1322,2768,29250,29197,2147483647,64557,49,65514,1105,11720,406,54147,3,3,3,2
paper,13:03:04.499,29254,7066,2913,1313,909,1261,791,1968,1239,742,764,2012,3133,29245,29078,29091,29096,29122,1520,1226,3203,1146,2333,2825,1173,1063,1006,843,1353,2742,29170,29267,2147483647,64558,56,65526,1105,11719,406,54146,3,3,3,2
paper,13:03:04.599,29122,7083,2944,1344,887,1248,773,2008,1256,764,742,1981,3120,29320,29043,29065,29170,29021,1494,1265,3212,1151,2289,2790,1125,1089,1032,874,1318,2711,29140,29074,2147483647,64549,51,65523,1106,11715,406,54143,3,3,3,2
paper,13:03:04.699,29280,7092,2895,1353,905,1230,856,2030,1265,755,720,1942,3111,29206,29039,29104,29109,29074,1542,1261,3212,1125,2307,2843,1138,1041,1028,887,1313,2764,29126,29236,2147483647,64549,55,65520,1106,11719,406,54147,3,3,3,2
paper,13:03:04.799,29210,7062,2882,1322,900,1261,782,1995,1291,777,707,1955,3146,29188,29100,29109,29118,29091,1480,1243,3229,1116,2324,2860,1151,1081,1037,883,1296,2786,29166,29201,2147483647,64557,37,65510,1107,11720,414,54149,3,3,3,2
paper,13:03:04.816,29298,7062,2860,1287,918,1239,773,1999,1305,733,742,1937,3155,29267,29091,29140,29153,29074,1542,1252,3212,1125,2337,2847,1116,1063,1054,914,1278,2737,29148,29201,2147483647,64556,62,65521,1103,11720,416,54148,3,3,3,2
paper,13:03:04.999,29192,7097,2882,1309,909,1252,799,2021,1226,711,729,1959,3142,29228,29091,29144,29118,29069,1498,1230,3208,1177,2315,2821,1146,1032,1019,874,1322,2764,29113,29206,2147483647,64551,51,65518,1100,11720,414,54148,3,3,3,2
go to fist,13:03:05.099,29258,7035,2931,1318,909,1265,804,1986,1234,747,725,1942,3124,29223,29131,29162,29109,29118,1494,1248,3243,1151,2320,2847,1142,1045,1010,856,1327,2746,29179,29254,2147483647,64553,47,65524,1100,11722,414,54149,3,3,3,2
go to fist,13:03:05.199,29214,7119,2856,1313,905,1274,804,1942,1252,742,773,1937,3071,29214,29162,29100,29074,29069,1511,1226,3216,1116,2311,2865,1142,1054,988,887,1331,2746,29118,29131,2147483647,64548,44,65513,1102,11721,415,54149,3,3,3,2
go to fist,13:03:05.300,29236,7079,2931,1300,896,1270,782,1959,1256,733,777,1937,3164,29311,29184,29148,29153,29140,1520,1248,3212,1146,2373,2825,1111,1072,1023,865,1318,2742,29192,29219,2147483647,64554,53,65521,1103,11720,417,54148,3,3,3,2
go to fist,13:03:05.399,29157,7075,2900,1322,878,1234,848,1973,1217,703,725,1929,3106,29223,29056,29100,29091,29104,1511,1265,3225,1125,2298,2869,1098,1045,1032,874,1318,2733,29087,29140,2147483647,64562,47,65524,1101,11720,418,54147,3,3,3,2
go to fist,13:03:05.499,29184,7066,2909,1309,900,1243,791,2047,1270,720,725,1977,3111,29307,29126,29118,29157,29175,1520,1226,3234,1120,2324,2825,1133,1120,1015,839,1318,2794,29197,29210,2147483647,64558,47,65520,1098,11719,415,54146,3,3,3,2
go to fist,13:03:05.513,29258,7075,2878,1322,892,1252,817,1977,1239,742,725,1964,3102,29214,29109,29083,29074,29126,1520,1226,3216,1089,2276,2821,1151,1050,1019,852,1278,2764,29175,29170,2147483647,64563,39,65530,1100,11718,414,54145,3,3,3,2
go to fist,13:03:05.614,29157,7048,2922,1331,900,1226,821,1990,1243,711,729,1986,3120,29250,29025,29091,29065,28951,1502,1226,3208,1107,2311,2808,1151,1059,984,817,1283,2729,29219,29175,2147483647,64570,51,5,1098,11713,410,54140,3,3,3,2
go to fist,13:03:05.799,29144,7075,2913,1322,896,1239,795,1977,1265,755,720,1955,3067,29254,28911,28955,29012,28929,1511,1204,3221,1142,2311,2856,1129,1076,1041,865,1300,2742,29078,29065,2147483647,64558,44,65531,1103,11696,405,54123,3,3,3,2
go to fist,13:03:05.899,29157,7101,2948,1349,918,1243,826,1955,1256,703,729,1964,3142,29276,29126,29126,29184,29170,1520,1226,3172,1142,2359,2799,1103,1085,1001,896,1309,2764,29104,29184,2147483647,64558,47,65516,1095,11693,411,54119,3,3,3,2
go to fist,13:03:05.999,29175,7123,2957,1318,905,1248,826,1959,1248,751,747,1999,3102,29263,28981,28955,28981,28920,1538,1204,3225,1120,2355,2834,1098,1054,1001,843,1331,2781,29258,29179,2147483647,64558,47,65507,1088,11698,416,54124,3,3,3,2
go to fist,13:03:06.099,29131,7083,2922,1309,922,1265,834,1977,1283,738,707,1911,3062,29245,28981,29087,29065,29021,1529,1256,3273,1120,2355,2816,1138,1072,1001,874,1357,2781,29175,29061,2147483647,64541,47,65504,1083,11701,418,54127,3,3,3,2
go to fist,13:03:06.199,29135,7026,2917,1309,870,1243,795,1968,1261,742,764,1964,3106,29223,29047,29039,29065,28995,1511,1195,3287,1098,2337,2799,1151,1063,1006,874,1327,2746,29214,29140,2147483647,64532,45,65501,1082,11701,420,54126,3,3,3,2
go to fist,13:03:06.299,29056,7079,2944,1318,918,1221,795,1995,1274,738,720,1920,3133,29241,28977,28999,29003,28986,1489,1243,3234,1151,2298,2825,1133,1125,1019,848,1335,2781,29206,29109,2147483647,64558,35,9,1081,11708,424,54134,3,3,3,2
go to fist,13:03:06.409,29148,7075,2948,1357,914,1221,799,1973,1265,729,751,1937,3120,29324,29056,29087,29061,29039,1476,1256,3208,1125,2320,2882,1151,1072,997,892,1287,2742,29162,29122,2147483647,64565,54,0,1071,11703,417,54127,3,3,3,2
go to fist,13:03:06.499,29078,7132,2935,1353,878,1248,812,1959,1296,769,769,1981,3124,29241,29197,29197,29223,29170,1524,1252,3234,1111,2302,2825,1125,1072,1037,830,1340,2742,28973,28981,2147483647,64560,45,65518,1064,11715,430,54140,3,3,3,2
go to fist,13:03:06.599,29223,7105,2895,1305,896,1265,821,1955,1243,755,720,1959,3137,29280,29140,29043,29017,29166,1502,1239,3212,1111,2302,2838,1146,1089,1006,848,1305,2777,29206,29210,2147483647,64554,50,65514,1068,11716,443,54141,3,3,3,2
go to fist,13:03:06.614,29188,7123,2944,1300,856,1239,808,1986,1300,764,733,1964,3146,29179,29126,28990,28973,29113,1516,1248,3203,1182,2320,2830,1138,1045,1063,839,1300,2772,29131,29232,2147483647,64568,34,65497,1074,11716,451,54142,3,3,3,2
go to fist,13:03:06.798,29241,7154,2970,1305,927,1283,830,2021,1261,698,711,1977,3106,29267,29157,29074,29052,29179,1533,1230,3229,1103,2293,2860,1138,1076,1015,883,1357,2772,29157,29245,2147483647,64557,42,65511,1077,11724,469,54151,3,3,3,2
go to fist,13:03:06.898,29197,7176,2983,1322,909,1239,812,1995,1270,755,760,1973,3155,29276,29056,28951,29025,29100,1542,1261,3216,1120,2311,2834,1116,1063,1010,839,1322,2733,29118,29170,2147483647,64552,48,65526,1073,11732,470,54160,3,3,3,2
go to fist,13:03:06.998,29087,7202,3027,1322,914,1278,817,1981,1261,720,760,1977,3164,29280,29012,29034,29065,29052,1489,1234,3234,1120,2311,2794,1116,1045,1010,839,1357,2746,29153,29043,2147483647,64566,47,65519,1085,11731,472,54160,3,3,3,2
go to fist,13:03:07.098,29096,7233,3106,1313,931,1221,812,2008,1270,755,773,1995,3225,29166,28981,28981,28986,29025,1529,1248,3238,1146,2333,2834,1177,1041,1006,870,1335,2786,29122,28999,2147483647,64539,48,65499,1090,11746,475,54176,3,3,3,2
go to fist,13:03:07.199,29219,7255,3111,1384,927,1239,830,1986,1270,751,755,1973,3225,29289,29083,29078,29047,29118,1529,1252,3221,1177,2311,2843,1168,1054,1028,839,1327,2772,29104,29140,2147483647,64570,21,16,1096,11757,490,54188,3,3,3,2
go to fist,13:03:07.298,29214,7312,3181,1340,922,1270,782,1999,1270,720,764,2003,3216,29228,28968,28955,28986,29017,1529,1248,3260,1111,2302,2830,1133,1054,1032,878,1322,2772,29188,29250,2147483647,64566,54,65508,1087,11777,502,54209,3,3,3,2
go to fist,13:03:07.399,29153,7299,3159,1322,914,1256,812,1990,1305,725,751,1937,3225,29201,28999,28964,28990,29012,1568,1265,3216,1107,2342,2887,1146,1063,993,839,1305,2803,29056,29192,2147483647,64582,34,65515,1082,11807,513,54240,3,3,3,2
go to fist,13:03:07.499,29228,7303,3098,1362,922,1291,782,1995,1239,773,747,1977,3243,29219,29232,28959,28968,29179,1533,1283,3291,1133,2337,2847,1103,1076,1001,874,1305,2790,29162,29293,2147483647,64584,38,65504,1076,11817,515,54251,3,3,3,2
go to fist,13:03:07.514,29091,7325,3164,1313,940,1305,821,2030,1265,742,764,2008,3208,29192,29039,28973,29003,28973,1498,1256,3278,1125,2337,2895,1142,1076,1023,892,1300,2777,29175,29104,2147483647,64554,46,65498,1067,11838,522,54271,3,3,3,2
go to fist,13:03:07.698,29267,7294,3137,1313,905,1256,777,2056,1248,764,747,1964,3234,29250,29170,29021,29069,29122,1568,1199,3229,1164,2342,2904,1116,1107,1015,834,1331,2794,29170,29241,2147483647,64553,46,65502,1068,11841,527,54275,3,3,3,2
go to fist,13:03:07.798,29219,7281,3120,1300,909,1252,821,2017,1217,764,769,2025,3260,29241,29131,28968,28964,29148,1516,1248,3265,1107,2377,2895,1160,1067,1041,843,1344,2790,29096,29179,2147483647,64552,47,65490,1073,11853,536,54288,3,3,3,2
go to fist,13:03:07.898,29258,7365,3120,1318,905,1239,808,2039,1278,733,725,1995,3208,29315,29201,29008,28999,29223,1542,1230,3243,1164,2390,2983,1116,1041,1037,861,1335,2777,29157,29245,2147483647,64551,47,65486,1074,11874,554,54311,3,3,3,2
go to fist,13:03:07.998,29289,7325,3199,1313,892,1256,834,2056,1230,773,769,1990,3265,29241,29096,29030,28986,29131,1555,1252,3265,1138,2425,2953,1116,1076,1032,830,1335,2794,29144,29267,2147483647,64578,48,65516,1076,11886,546,54324,3,3,3,2
go to fist,13:03:08.098,29241,7299,3172,1322,905,1265,817,2030,1234,703,738,1981,3269,29320,29162,29096,29056,29201,1520,1265,3260,1125,2430,2917,1111,1059,1063,861,1331,2825,29197,29236,2147483647,64543,45,65483,1079,11906,534,54345,3,3,3,2
go to fist,13:03:08.208,29192,7286,3106,1340,905,1313,826,2056,1265,795,773,1990,3309,29263,29148,28946,28990,29157,1555,1270,3287,1177,2566,2935,1125,1094,1037,892,1340,2803,29126,29197,2147483647,64553,39,65467,1074,11925,528,54364,3,3,3,2
go to fist,13:03:08.298,29285,7281,3102,1309,870,1291,826,2017,1256,782,764,1999,3269,28937,28977,28604,28709,28951,1551,1230,3291,1129,2487,3001,1125,1094,1019,878,1335,2790,28986,29263,2147483647,64549,49,65477,1063,11927,516,54365,3,3,3,2
go to fist,13:03:08.398,29109,7233,3106,1309,931,1256,808,2025,1239,755,760,1959,3269,29307,29166,28854,29017,29118,1524,1252,3234,1142,2500,2961,1125,1081,1001,870,1313,2786,28850,29083,2147483647,64532,46,65478,1070,11933,505,54372,3,3,3,2
go to fist,13:03:08.498,29179,7242,3032,1340,944,1248,843,2043,1274,782,760,1990,3225,29293,29307,29039,29043,29276,1516,1248,3273,1129,2504,2909,1120,1089,1081,874,1331,2781,29175,29245,2147483647,64555,45,65491,1073,11923,499,54361,3,3,3,2
go to fist,13:03:08.599,29263,7211,3041,1327,953,1278,812,2039,1265,760,742,1977,3234,29206,29206,28995,29017,29206,1542,1265,3300,1146,2557,2966,1151,1067,988,883,1388,2755,29219,29254,2147483647,64550,46,65484,1073,11916,499,54354,3,3,3,2
go to fist,13:03:08.698,29192,7207,3032,1291,940,1256,773,2039,1265,716,760,1973,3269,29311,29250,29025,29061,29315,1542,1226,3251,1173,2522,2988,1138,1089,1041,896,1313,2733,29166,29131,2147483647,64554,50,65490,1075,11911,499,54349,3,3,3,2
go to fist,13:03:08.798,29293,7211,3014,1322,909,1300,799,2061,1265,747,751,1977,3309,29214,29241,29017,28995,29214,1555,1239,3273,1155,2562,2992,1133,1111,1067,870,1305,2772,29214,29192,2147483647,64554,47,65491,1080,11890,500,54327,3,3,3,2
go to fist,13:03:08.898,29206,7141,3001,1318,953,1291,760,2039,1252,764,733,1959,3251,29236,29223,29083,29083,29241,1533,1234,3273,1133,2553,2931,1138,1120,1015,817,1331,2794,29118,29113,2147483647,64556,52,65488,1081,11884,500,54320,3,3,3,2
go to fist,13:03:08.999,29285,7136,2931,1384,918,1322,769,2056,1287,729,747,1986,3247,29232,29302,29025,29003,29271,1529,1291,3273,1111,2553,2979,1142,1089,1041,883,1371,2768,29170,29223,2147483647,64555,47,65488,1083,11883,510,54320,3,3,3,2
go to fist,13:03:09.098,29157,7154,2966,1344,936,1296,821,2109,1278,760,769,1933,3203,29223,29250,28986,28946,29241,1560,1243,3273,1129,2566,2983,1173,1085,1032,892,1313,2768,29214,29197,2147483647,64565,39,65490,1086,11892,523,54331,3,3,3,2
go to fist,13:03:09.198,29241,7123,2957,1331,922,1252,782,2083,1283,711,742,2039,3260,29263,29276,29047,29039,29250,1538,1278,3234,1160,2548,2983,1129,1116,988,892,1366,2781,29184,29206,2147483647,64570,49,65488,1091,11898,533,54338,3,3,3,2
go to fist,13:03:09.298,29197,7127,2966,1327,922,1274,782,2074,1270,742,760,1999,3229,29210,29254,29003,28959,29197,1529,1252,3291,1160,2566,2939,1142,1094,1023,861,1335,2834,29122,29157,2147483647,64564,42,65483,1095,11898,537,54338,3,3,3,2
go to fist,13:03:09.313,29219,7105,2975,1340,909,1270,791,2078,1212,729,738,2008,3256,29381,29320,29166,29148,29254,1511,1239,3269,1125,2540,2939,1160,1081,1041,900,1291,2772,29166,29184,2147483647,64562,31,65488,1099,11894,538,54335,3,3,3,2
go to fist,13:03:09.415,29201,7149,2992,1349,918,1261,795,2065,1212,751,720,1999,3256,29276,29214,28999,28995,29083,1533,1256,3247,1120,2575,2957,1160,1103,1050,887,1335,2772,28973,29179,2147483647,64564,48,65492,1119,11883,542,54326,3,3,3,2
go to fist,13:03:09.514,29214,7149,2992,1313,940,1287,764,2069,1248,733,742,2017,3247,29289,29280,29012,29100,29289,1538,1265,3322,1094,2619,2935,1168,1085,1054,909,1327,2777,29188,29232,2147483647,64551,38,65492,1138,11873,547,54317,3,3,3,2
go to fist,13:03:09.614,29276,7154,2961,1322,949,1283,782,2047,1252,729,738,1995,3282,29293,29184,29078,29126,29201,1524,1239,3287,1155,2619,2935,1125,1103,1050,856,1327,2838,29021,29166,2147483647,64562,53,65495,1145,11873,543,54317,3,3,3,2
go to fist,13:03:09.714,29162,7083,2961,1388,953,1270,782,2043,1248,742,773,1990,3260,29302,29293,29025,29008,29267,1538,1283,3269,1111,2614,2944,1129,1081,1037,878,1349,2759,29025,29135,2147483647,64559,48,65488,1144,11880,542,54325,3,3,3,2
go to fist,13:03:09.898,29258,7154,2988,1349,979,1300,773,2039,1252,738,751,1964,3260,29315,29214,29126,29083,29219,1516,1256,3265,1164,2583,2922,1155,1094,1006,865,1344,2786,29003,29219,2147483647,64553,48,65486,1146,11892,545,54340,3,3,3,2
go to fist,13:03:09.999,29228,7132,2948,1335,918,1265,808,2052,1261,751,738,1955,3265,29421,29329,29122,29166,29280,1533,1265,3265,1142,2588,2979,1168,1076,1019,861,1287,2816,29030,29148,2147483647,64546,42,65488,1147,11907,549,54354,3,3,3,2
wait in fist,13:03:10.098,29311,7127,2953,1327,918,1296,773,2056,1243,751,755,1964,3247,29241,29206,29017,29047,29131,1529,1270,3287,1168,2605,2966,1146,1103,1054,900,1318,2786,29017,29289,2147483647,64557,47,65489,1155,11915,558,54364,3,3,3,2
wait in fist,13:03:10.199,29188,7114,2900,1357,918,1274,791,2104,1221,760,755,1959,3243,29359,29228,29047,29126,29280,1538,1234,3243,1155,2619,2961,1160,1098,975,852,1322,2799,28986,29153,2147483647,64548,57,65483,1156,11924,565,54375,3,3,3,2
wait in fist,13:03:10.298,29276,7092,2953,1296,936,1278,812,2043,1283,760,791,1964,3265,29241,29276,29025,29017,29271,1520,1248,3216,1146,2614,2931,1151,1098,1015,887,1366,2838,28964,29236,2147483647,64549,53,65480,1156,11931,575,54383,3,3,3,2
wait in fist,13:03:10.398,29175,7119,2852,1309,922,1287,786,2043,1234,747,738,1973,3212,29351,29188,29056,29069,29188,1568,1243,3282,1142,2636,2917,1182,1120,1015,914,1331,2790,28836,29254,2147483647,64562,49,65487,1146,11933,585,54385,3,3,3,2
wait in fist,13:03:10.498,29245,7110,2926,1313,971,1283,769,2087,1256,738,777,1920,3247,29342,29285,29179,29166,29302,1560,1265,3265,1164,2610,2970,1138,1103,1006,852,1335,2794,28898,29250,2147483647,64552,48,65480,1142,11942,588,54395,3,3,3,2
wait in fist,13:03:10.598,29144,7075,2900,1322,949,1265,769,2074,1243,711,769,1964,3212,29228,29197,29025,29030,29245,1502,1234,3273,1138,2597,2970,1142,1072,1010,870,1327,2790,28687,29201,2147483647,64560,42,65481,1142,11950,589,54402,3,3,3,2
wait in fist,13:03:10.614,29258,7083,2944,1322,909,1296,791,2061,1278,747,742,1986,3238,29307,29285,29039,29043,29298,1529,1243,3251,1129,2645,2931,1151,1081,1028,874,1331,2812,28999,29228,2147483647,64548,38,65479,1142,11954,591,54407,3,3,3,2
wait in fist,13:03:10.799,29219,7136,2909,1357,918,1256,782,2083,1252,755,769,1959,3269,29381,29206,29047,29074,29250,1555,1261,3181,1151,2605,2939,1151,1103,1045,852,1331,2746,28727,29148,2147483647,64559,40,65478,1143,11958,593,54411,3,3,3,2
wait in fist,13:03:10.899,29236,7053,2948,1327,958,1265,799,2043,1256,760,729,1977,3247,29214,29320,29061,29087,29315,1507,1274,3269,1199,2610,2926,1177,1094,1045,887,1340,2768,28757,29232,2147483647,64554,47,65478,1146,11969,594,54422,3,3,3,2
wait in fist,13:03:10.998,29197,7066,2909,1344,931,1305,751,2078,1261,782,725,1964,3208,29210,29289,29039,29008,29298,1538,1243,3265,1116,2623,2957,1151,1103,1041,843,1322,2812,28858,29206,2147483647,64553,47,65470,1155,11969,589,54423,3,3,3,2
wait in fist,13:03:11.013,29192,7026,2895,1318,953,1270,795,2056,1243,760,755,1964,3225,29210,29258,29157,29175,29293,1520,1248,3208,1177,2641,2931,1111,1063,1050,852,1327,2786,28727,29153,2147483647,64548,47,65480,1153,11976,592,54429,3,3,3,2
wait in fist,13:03:11.114,29263,7057,2895,1313,966,1305,786,2065,1278,751,769,1973,3238,29232,29223,29122,29096,29228,1516,1261,3256,1186,2632,2983,1160,1067,1015,878,1357,2790,28819,29245,2147483647,64558,40,65478,1152,11970,593,54426,3,3,3,2
wait in fist,13:03:11.213,29170,7088,2900,1335,971,1252,808,2056,1226,773,747,1990,3208,29254,29311,29214,29201,29302,1533,1278,3273,1138,2601,2966,1173,1103,1023,914,1283,2777,28696,29162,2147483647,64560,38,65475,1151,11975,595,54430,3,3,3,2
wait in fist,13:03:11.398,29271,7070,2939,1331,940,1274,769,2065,1221,764,760,1955,3212,29170,29250,29267,29170,29285,1520,1252,3225,1160,2605,2970,1155,1076,1019,878,1344,2777,28753,29250,2147483647,64558,43,65466,1152,11984,597,54438,3,3,3,2
wait in fist,13:03:11.498,29131,7066,2922,1331,940,1256,795,2030,1243,742,791,1995,3172,29298,29210,29109,29140,29241,1529,1261,3269,1164,2667,2957,1125,1054,1032,865,1349,2742,28999,29162,2147483647,64557,42,65477,1153,11983,597,54439,3,3,3,2
wait in fist,13:03:11.513,29315,7079,2860,1327,931,1274,799,2083,1256,738,755,1959,3199,29241,29170,29337,29302,29228,1498,1230,3221,1182,2641,2948,1138,1028,1010,870,1335,2772,28894,29245,2147483647,64550,38,65470,1152,11993,598,54450,3,3,3,2
wait in fist,13:03:11.699,29192,7053,2917,1349,900,1248,760,2135,1265,729,755,1964,3234,29131,29250,29197,29258,29210,1546,1234,3229,1186,2645,2961,1155,1094,1010,896,1344,2764,28845,29241,2147483647,64557,39,65465,1151,12004,599,54462,3,3,3,2
wait in fist,13:03:11.714,29241,7031,2825,1349,922,1274,769,2065,1226,707,751,1986,3181,29280,29258,29285,29315,29276,1520,1248,3238,1129,2632,2926,1120,1089,1037,887,1331,2742,28779,29236,2147483647,64563,37,65471,1153,12004,601,54461,3,3,3,2
wait in fist,13:03:11.899,29162,7040,2891,1318,953,1287,791,1986,1256,725,755,1968,3238,29245,29219,29197,29219,29192,1529,1239,3260,1133,2654,2953,1142,1111,1063,874,1349,2759,28797,29104,2147483647,64556,36,65468,1154,12006,601,54464,3,3,3,2
wait in fist,13:03:11.999,29258,7035,2878,1300,914,1309,769,2047,1265,747,764,1959,3199,29329,29271,29293,29307,29280,1511,1274,3238,1151,2654,2935,1120,1089,1045,856,1331,2764,28885,29236,2147483647,64557,43,65478,1156,12005,603,54463,3,3,3,2
wait in fist,13:03:12.098,29170,7009,2887,1322,918,1270,786,2061,1226,760,751,1964,3256,29210,29232,29236,29271,29236,1533,1234,3243,1138,2671,2939,1111,1041,1028,874,1344,2755,28700,29192,2147483647,64564,40,65476,1155,12006,605,54463,3,3,3,2
wait in fist,13:03:12.120,29232,7022,2874,1305,914,1287,769,2025,1239,747,747,1951,3194,29276,29276,29263,29280,29298,1516,1252,3208,1155,2597,2948,1120,1063,1010,887,1362,2794,28876,29267,2147483647,64562,40,65478,1157,12005,606,54463,3,3,3,2
wait in fist,13:03:12.298,29197,7022,2852,1322,918,1252,808,2047,1256,698,742,1977,3190,29250,29245,29228,29228,29298,1498,1221,3221,1133,2592,2935,1138,1076,1032,896,1318,2733,28709,29166,2147483647,64553,42,65476,1159,12007,608,54465,3,3,3,2
wait in fist,13:03:12.398,29188,7000,2887,1305,918,1274,773,2065,1239,672,764,1959,3243,29236,29250,29254,29280,29250,1524,1221,3265,1160,2658,2913,1103,1059,1019,896,1357,2759,28828,29197,2147483647,64560,41,65477,1154,12005,612,54464,3,3,3,2
wait in fist,13:03:12.508,29157,7044,2852,1327,958,1274,777,2078,1212,725,751,1968,3256,29232,29214,29206,29201,29236,1582,1261,3251,1133,2658,2922,1133,1059,979,856,1340,2816,28828,29144,2147483647,64553,32,65474,1151,12013,610,54471,3,3,3,2
wait in fist,13:03:12.598,28867,7022,2838,1331,953,1305,769,2056,1239,738,747,1942,3238,29109,29276,29276,29210,29311,1507,1248,3251,1142,2654,2953,1146,1081,1019,887,1318,2781,29206,28894,2147483647,64558,44,65472,1139,12011,619,54469,3,3,3,2
wait in fist,13:03:12.619,29214,7062,2856,1309,927,1252,760,2074,1226,733,795,1946,3212,29078,29188,29228,29223,29214,1524,1217,3194,1146,2649,2935,1151,1081,1037,861,1283,2720,28841,29206,2147483647,64553,37,65473,1129,12013,630,54470,3,3,3,2
wait in fist,13:03:12.713,29192,7022,2852,1335,962,1283,782,2074,1248,747,769,1981,3203,29219,29267,29245,29289,29355,1524,1248,3221,1146,2645,2926,1129,1103,1023,861,1340,2764,28705,29144,2147483647,64560,37,65473,1118,12009,641,54466,3,3,3,2
wait in fist,13:03:12.817,29302,6987,2843,1318,927,1252,769,2043,1230,738,738,1959,3256,29175,29254,29241,29241,29241,1520,1265,3243,1120,2663,2913,1138,1094,1015,883,1309,2764,28920,29228,2147483647,64555,35,65461,1113,12010,644,54466,3,3,3,2
wait in fist,13:03:12.999,29162,7062,2882,1313,922,1300,773,2047,1226,725,738,1946,3216,29293,29206,29219,29232,29210,1529,1243,3229,1168,2658,2944,1129,1067,1019,852,1318,2733,28718,29148,2147483647,64560,36,65476,1106,12004,643,54459,3,3,3,2
wait in fist,13:03:13.014,29280,7009,2838,1327,931,1313,764,2030,1261,738,764,1968,3212,29276,29245,29276,29315,29236,1560,1243,3208,1151,2605,2913,1146,1085,993,874,1322,2777,29104,29267,2147483647,64552,25,65478,1103,12004,646,54459,3,3,3,2
wait in fist,13:03:13.199,29197,7053,2825,1344,940,1296,773,2065,1221,707,764,1959,3243,29223,29285,29192,29267,29263,1529,1230,3225,1111,2641,2979,1155,1116,1023,870,1327,2733,28929,29162,2147483647,64566,33,65472,1097,11998,648,54451,3,3,3,2
wait in fist,13:03:13.309,29228,6978,2856,1327,953,1296,786,2065,1239,742,764,1955,3190,29302,29447,29285,29293,29412,1520,1248,3212,1151,2654,2939,1138,1059,1045,883,1309,2746,29039,29206,2147483647,64544,34,65466,1095,12003,650,54457,3,3,3,2
wait in fist,13:03:13.398,29052,6991,2891,1313,958,1283,773,2061,1217,725,799,1959,3186,28828,29320,29271,29267,29289,1542,1243,3186,1089,2597,2939,1151,1111,1015,861,1340,2724,29184,29039,2147483647,64559,34,65476,1094,11996,651,54450,3,3,3,2
wait in fist,13:03:13.498,29228,6987,2816,1305,927,1274,760,2039,1221,720,764,1955,3251,29320,29438,29289,29311,29412,1498,1256,3190,1107,2632,2935,1107,1063,1028,878,1313,2764,29012,29184,2147483647,64548,33,65468,1094,11998,652,54452,3,3,3,2
wait in fist,13:03:13.598,29047,6996,2799,1318,944,1274,773,2052,1226,685,742,1933,3199,29298,29368,29232,29201,29390,1520,1252,3234,1146,2632,2931,1142,1045,1041,887,1322,2746,28929,29091,2147483647,64552,30,65468,1094,11994,652,54447,3,3,3,2
wait in fist,13:03:13.698,29078,6938,2843,1340,949,1300,764,2087,1265,773,764,1964,3216,29329,29408,29285,29258,29403,1551,1265,3243,1138,2641,2917,1164,1067,1037,914,1283,2750,29043,29118,2147483647,64557,31,65477,1093,11991,651,54444,3,3,3,2
wait in fist,13:03:13.714,29126,6965,2874,1287,949,1270,773,2047,1248,747,716,1959,3247,29219,29368,29228,29236,29320,1516,1274,3203,1146,2667,2917,1146,1089,1028,870,1335,2746,28946,29052,2147483647,64554,33,65474,1093,11994,651,54447,3,3,3,2
wait in fist,13:03:13.899,29043,7057,2869,1309,953,1283,777,2043,1243,738,733,1986,3221,29329,29416,29307,29271,29434,1524,1261,3194,1125,2641,2944,1125,1098,1037,861,1353,2742,29083,29065,2147483647,64554,30,65462,1093,11995,651,54449,3,3,3,2
wait in fist,13:03:13.999,29126,6978,2812,1322,914,1278,791,2052,1248,729,747,1959,3216,29258,29364,29188,29245,29364,1529,1234,3212,1111,2685,2988,1111,1094,1023,870,1335,2759,29056,29056,2147483647,64562,41,65463,1092,11999,653,54452,3,3,3,2
wait in fist,13:03:14.099,29074,7022,2799,1291,979,1261,764,2074,1252,742,747,1951,3225,29192,29285,29241,29302,29324,1582,1278,3199,1173,2619,2935,1142,1125,1045,883,1331,2750,29074,29069,2147483647,64556,27,65464,1092,11999,653,54452,3,3,3,2
wait in fist,13:03:14.114,29144,6974,2847,1344,949,1252,795,2061,1221,747,755,1968,3243,29280,29421,29298,29298,29359,1533,1256,3221,1076,2654,2935,1146,1081,1028,861,1300,2794,29017,29122,2147483647,64564,34,65466,1087,11999,660,54453,3,3,3,2
wait in fist,13:03:14.300,28757,7053,2843,1318,940,1287,826,2065,1243,733,747,1959,3225,29289,29201,29245,29307,29285,1507,1283,3234,1155,2663,2935,1155,1111,1028,887,1335,2720,29052,29056,2147483647,64561,30,65471,1087,11999,660,54452,3,3,3,2
wait in fist,13:03:14.398,28907,6991,2838,1353,944,1313,817,2039,1248,742,764,1977,3251,29232,29368,29329,29302,29280,1546,1243,3238,1146,2649,2931,1142,1107,1015,843,1353,2781,29043,28959,2147483647,64557,28,65467,1085,12010,662,54465,3,3,3,2
wait in fist,13:03:14.499,29065,7000,2843,1340,953,1283,764,2034,1248,707,725,1946,3208,29210,29337,29254,29241,29315,1546,1270,3212,1116,2641,2953,1094,1089,1015,865,1340,2772,28933,29052,2147483647,64554,29,65464,1085,12014,662,54469,3,3,3,2
wait in fist,13:03:14.512,29140,7018,2852,1278,931,1239,799,1990,1226,751,760,1986,3216,29254,29381,29298,29311,29416,1507,1256,3221,1138,2676,2926,1164,1089,1041,896,1305,2724,29008,29104,2147483647,64546,26,65469,1086,12015,664,54471,3,3,3,2
wait in fist,13:03:14.614,28700,7000,2856,1327,931,1309,755,1981,1221,760,733,1946,3229,29192,29342,29245,29206,29342,1529,1230,3203,1142,2654,2909,1089,1116,1041,883,1287,2737,28995,28867,2147483647,64547,24,65465,1087,12020,665,54476,3,3,3,2
wait in fist,13:03:14.799,28788,7000,2860,1349,940,1248,782,2039,1265,747,755,1937,3282,29276,29373,29298,29267,29408,1511,1239,3190,1155,2676,2913,1146,1085,984,896,1305,2724,29003,28788,2147483647,64564,31,65461,1083,12025,671,54481,3,3,3,2
wait in fist,13:03:14.900,28929,7000,2865,1309,971,1300,755,2087,1270,755,738,2008,3295,29250,29351,29250,29210,29368,1546,1261,3186,1177,2680,2944,1164,1085,1045,861,1379,2764,28999,28806,2147483647,64571,15,65462,1079,12027,673,54483,3,3,3,2
wait in fist,13:03:14.914,29078,7022,2852,1322,931,1296,786,2069,1234,747,742,1977,3269,29355,29241,29280,29342,29184,1560,1204,3199,1138,2680,2953,1146,1063,1006,874,1296,2759,29017,28889,2147483647,64563,26,65461,1074,12030,679,54486,3,3,3,2
fist to thumbs,13:03:15.013,28894,7000,2900,1335,962,1274,764,2047,1270,791,755,1885,3238,29289,29351,29245,29254,29263,1546,1234,3229,1173,2667,2909,1146,1098,1045,892,1318,2759,28995,28889,2147483647,64562,28,65467,1074,12032,687,54489,3,3,3,2
fist to thumbs,13:03:15.199,28810,7018,2874,1340,940,1291,786,2087,1248,729,782,1942,3291,29267,29298,29280,29267,29236,1516,1278,3229,1146,2654,2891,1129,1125,1015,883,1375,2742,29069,29025,2147483647,64568,33,65466,1066,12034,697,54491,3,3,3,2
fist to thumbs,13:03:15.298,28784,7075,2878,1305,958,1261,786,2052,1230,755,738,1955,3287,29179,29061,29337,29329,29043,1555,1226,3234,1138,2733,2900,1151,1085,1023,856,1340,2729,29039,28744,2147483647,64561,27,65454,1065,12034,699,54490,3,3,3,2
fist to thumbs,13:03:15.398,28876,7026,2931,1340,949,1300,791,2104,1248,751,760,1973,3278,29250,29245,29236,29320,29267,1524,1265,3208,1142,2702,2926,1129,1067,1041,878,1357,2663,28968,28836,2147483647,64554,34,65463,1064,12032,698,54489,3,3,3,2
fist to thumbs,13:03:15.499,28766,7053,2816,1322,962,1309,755,2074,1239,729,755,1955,3243,29135,29148,29245,29250,29184,1551,1248,3190,1111,2654,2948,1129,1098,1015,856,1309,2786,29030,28916,2147483647,64551,25,65471,1071,12022,689,54477,3,3,3,2
fist to thumbs,13:03:15.513,28762,7022,2852,1300,971,1300,711,2109,1230,747,751,1973,3282,29184,29135,29228,29219,29197,1538,1265,3221,1146,2720,2882,1160,1094,1041,887,1318,2777,28981,28784,2147483647,64552,32,65459,1068,12015,693,54470,3,3,3,2
fist to thumbs,13:03:15.699,29214,7000,2834,1309,953,1278,777,2118,1234,764,760,1973,3269,29100,29179,29250,29245,29206,1516,1274,3243,1160,2698,2961,1133,1094,1032,878,1340,2759,29184,29184,2147483647,64558,24,65454,1067,12012,694,54466,3,3,3,2
fist to thumbs,13:03:15.799,28819,6987,2860,1327,962,1287,791,2034,1265,738,769,1955,3265,29280,29170,29245,29232,29206,1542,1221,3238,1111,2680,2913,1133,1085,1023,843,1331,2755,28995,28823,2147483647,64559,28,65464,1064,12009,692,54463,3,3,3,2
fist to thumbs,13:03:15.908,29012,7009,2838,1305,962,1256,791,2087,1265,698,804,1951,3313,29219,29271,29293,29315,29298,1538,1261,3186,1138,2707,2931,1116,1072,1010,892,1291,2768,28999,28744,2147483647,64555,32,65463,1063,12005,690,54459,3,3,3,2
fist to thumbs,13:03:16.008,29232,7018,2852,1327,958,1318,799,2065,1217,720,733,1955,3273,29074,29223,29250,29236,29179,1529,1287,3212,1120,2711,2926,1103,1094,1037,865,1313,2750,29210,29188,2147483647,64549,26,65467,1064,11997,690,54450,3,3,3,2
fist to thumbs,13:03:16.023,29223,7013,2874,1318,922,1283,751,2047,1226,733,742,1937,3273,29170,29267,29276,29263,29258,1546,1248,3190,1138,2693,2922,1081,1116,997,856,1322,2746,29293,29188,2147483647,64556,28,65474,1066,11992,691,54445,3,3,3,2
fist to thumbs,13:03:16.124,29184,6969,2856,1305,940,1296,786,2034,1243,711,755,1977,3238,29104,29223,29315,29245,29210,1573,1248,3216,1098,2737,2913,1120,1107,1006,887,1322,2729,29289,29201,2147483647,64560,24,65477,1068,11989,695,54443,3,3,3,2
fist to thumbs,13:03:16.214,29017,6987,2816,1283,944,1243,791,2061,1217,747,760,1951,3273,29298,29289,29315,29285,29307,1529,1243,3194,1107,2715,2935,1107,1085,988,878,1305,2786,29030,29122,2147483647,64557,26,65459,1067,11994,699,54448,3,3,3,2
fist to thumbs,13:03:16.314,28841,6996,2830,1322,905,1305,764,2087,1252,733,773,1937,3304,29228,29276,29219,29276,29276,1546,1256,3229,1142,2720,2944,1133,1098,1015,856,1340,2759,28951,28784,2147483647,64554,21,65461,1064,11992,701,54445,3,3,3,2
fist to thumbs,13:03:16.498,28828,6974,2816,1283,936,1327,747,2061,1243,707,751,1933,3251,29276,29289,29342,29267,29219,1485,1287,3243,1138,2693,2953,1160,1076,1028,878,1305,2724,29017,28762,2147483647,64551,24,65471,1063,11995,702,54448,3,3,3,2
fist to thumbs,13:03:16.598,28902,7040,2781,1300,918,1331,848,2056,1208,747,791,1942,3322,29267,29219,29206,29214,29201,1538,1243,3203,1142,2693,2961,1138,1103,1041,878,1340,2772,29003,28995,2147483647,64561,25,65461,1062,12002,710,54456,3,3,3,2
fist to thumbs,13:03:16.709,28722,6991,2825,1278,914,1283,799,2087,1243,716,755,1955,3357,29324,29324,29250,29289,29276,1546,1226,3221,1129,2715,2944,1155,1076,1019,896,1305,2768,29025,28718,2147483647,64548,27,65469,1061,12020,722,54477,3,3,3,2
fist to thumbs,13:03:16.809,29184,6982,2834,1313,936,1283,755,2069,1270,760,777,1955,3344,29118,28845,29267,29245,28999,1555,1256,3194,1120,2711,2953,1138,1063,997,865,1327,2772,29148,29170,2147483647,64542,25,65454,1064,12038,729,54497,3,3,3,2
fist to thumbs,13:03:16.909,29188,7000,2865,1331,940,1322,751,2096,1252,720,751,1959,3353,29219,28845,29289,29289,28880,1516,1243,3216,1142,2715,2961,1120,1098,1045,870,1322,2790,29214,29223,2147483647,64560,23,65460,1064,12046,732,54506,3,3,3,2
fist to thumbs,13:03:16.998,29236,6947,2847,1291,958,1243,769,2061,1239,716,725,1946,3370,29008,28916,29298,29250,29012,1542,1239,3199,1111,2715,2966,1129,1103,1010,874,1344,2790,29298,29214,2147483647,64552,27,65455,1070,12064,739,54527,3,3,3,2
fist to thumbs,13:03:17.098,28854,6903,2856,1309,931,1270,777,2087,1208,733,738,1955,3366,29140,29122,29241,29263,29113,1533,1248,3221,1138,2698,2997,1129,1103,997,852,1322,2790,28973,28916,2147483647,64564,28,65450,1073,12074,737,54538,3,3,3,2
fist to thumbs,13:03:17.113,28898,6947,2816,1327,962,1291,777,2069,1239,720,760,1942,3379,29166,29175,29320,29307,29228,1538,1265,3247,1142,2737,2944,1142,1107,1023,883,1313,2799,29034,28876,2147483647,64547,22,65452,1075,12084,740,54549,3,3,3,2
fist to thumbs,13:03:17.298,29074,6930,2816,1300,962,1291,799,2104,1278,755,747,1955,3375,29254,28986,29232,29241,28959,1573,1278,3225,1133,2733,2922,1116,1081,1001,865,1300,2799,29003,29003,2147483647,64572,32,65457,1069,12093,743,54559,3,3,3,2
fist to thumbs,13:03:17.398,28898,6974,2834,1327,993,1309,764,2034,1243,755,777,1955,3392,29175,29324,29337,29346,29307,1590,1239,3221,1111,2676,2957,1164,1054,1006,900,1318,2808,29083,28907,2147483647,64555,13,65448,1068,12104,747,54571,3,3,3,2
fist to thumbs,13:03:17.498,28911,6978,2821,1322,966,1291,773,2074,1274,729,751,1920,3357,29056,29254,29320,29298,29241,1538,1248,3208,1160,2764,2931,1129,1116,1037,878,1322,2777,28951,28749,2147483647,64552,13,65457,1057,12104,758,54571,3,3,3,2
fist to thumbs,13:03:17.514,28841,6934,2772,1287,975,1291,795,2100,1248,698,751,1929,3344,29140,29267,29232,29315,29311,1564,1261,3208,1129,2733,2922,1155,1063,1032,909,1322,2755,29087,28880,2147483647,64561,16,65453,1051,12101,763,54567,3,3,3,2
fist to thumbs,13:03:17.698,28722,6925,2803,1327,962,1305,769,2109,1256,760,751,1937,3344,29166,29131,29206,29271,29122,1546,1234,3203,1133,2698,2935,1103,1116,1015,883,1309,2808,29008,28639,2147483647,64548,14,65440,1045,12087,758,54551,3,3,3,2
fist to thumbs,13:03:17.799,28836,6938,2733,1296,984,1291,769,2096,1199,720,769,1955,3317,29188,29271,29298,29267,29298,1533,1243,3221,1125,2755,2948,1125,1107,1032,856,1331,2772,29078,28999,2147483647,64556,20,65455,1041,12083,751,54545,3,3,3,2
fist to thumbs,13:03:17.815,28845,6908,2781,1309,975,1287,786,2069,1226,751,764,1933,3396,29100,29228,29192,29250,29236,1524,1261,3181,1125,2803,2926,1138,1050,988,861,1309,2799,29021,28757,2147483647,64551,21,65444,1039,12079,738,54540,3,3,3,2
fist to thumbs,13:03:17.914,28735,6916,2786,1309,936,1305,751,2030,1252,725,747,1916,3357,29175,29337,29443,29412,29293,1555,1256,3221,1111,2781,2944,1085,1063,1028,887,1335,2790,28986,28801,2147483647,64555,14,65455,1036,12072,733,54532,3,3,3,2
fist to thumbs,13:03:18.014,29043,6969,2746,1283,971,1291,760,2039,1239,733,791,1933,3291,29074,29113,29188,29197,29126,1494,1230,3212,1133,2781,2961,1155,1116,1050,892,1327,2790,29003,28784,2147483647,64569,27,65475,1027,12063,732,54521,3,3,3,2
fist to thumbs,13:03:18.115,28828,6947,2764,1305,953,1291,755,2034,1248,725,751,1889,3322,29153,29311,29241,29289,29276,1502,1274,3181,1160,2759,2935,1151,1085,1006,826,1318,2808,28964,28946,2147483647,64552,17,65466,1025,12052,732,54509,3,3,3,2
fist to thumbs,13:03:18.299,28801,6916,2750,1309,931,1287,755,2047,1230,703,729,1951,3317,29118,29087,29245,29245,29087,1573,1239,3208,1129,2794,2917,1151,1072,1019,878,1291,2790,28995,28845,2147483647,64571,17,65465,1023,12049,738,54506,3,3,3,2
fist to thumbs,13:03:18.399,28779,6947,2764,1313,953,1256,747,2069,1226,733,747,1924,3326,29148,29047,29214,29228,29140,1520,1226,3229,1103,2825,2939,1155,1054,1015,861,1318,2764,28995,28718,2147483647,64572,16,65457,1023,12048,744,54506,3,3,3,2
fist to thumbs,13:03:18.500,29100,6938,2768,1313,949,1309,751,2074,1217,755,742,1889,3353,29157,29153,29302,29311,29162,1546,1226,3247,1155,2838,2935,1146,1081,1050,834,1353,2790,29065,29148,2147483647,64557,22,65463,1018,12049,746,54506,3,3,3,2
fist to thumbs,13:03:18.515,29056,6969,2777,1313,922,1296,764,2074,1256,733,733,1942,3370,29228,29192,29324,29311,29135,1533,1226,3234,1155,2834,2900,1116,1089,1015,865,1344,2781,28911,29069,2147483647,64572,17,65478,1012,12045,755,54502,3,3,3,2
fist to thumbs,13:03:18.614,29043,6895,2768,1335,940,1296,773,2043,1226,760,755,1889,3353,29184,29148,29333,29258,29144,1533,1243,3221,1138,2865,2970,1173,1085,1032,856,1331,2794,29074,29087,2147483647,64559,17,65465,1003,12054,771,54511,3,3,3,2
fist to thumbs,13:03:18.723,29201,6886,2759,1331,958,1309,773,2104,1278,751,769,1933,3366,28986,28775,29197,29197,28907,1577,1243,3247,1142,2847,2975,1160,1089,1059,914,1318,2772,29188,29113,2147483647,64567,6,65449,991,12053,785,54511,3,3,3,2
fist to thumbs,13:03:18.816,29096,6930,2733,1322,918,1300,799,2034,1256,711,773,1924,3344,29201,29162,29307,29315,29219,1524,1230,3256,1164,2904,2948,1160,1098,1059,914,1318,2768,29056,29083,2147483647,64566,18,65452,982,12060,794,54519,3,3,3,2
fist to thumbs,13:03:18.914,29025,6895,2711,1305,936,1327,738,2025,1261,733,729,1942,3379,29175,29245,29329,29386,29276,1538,1256,3216,1142,2882,2935,1103,1103,1032,870,1340,2777,28955,28999,2147483647,64564,10,65450,977,12068,800,54527,3,3,3,2
fist to thumbs,13:03:19.015,29039,6864,2742,1331,940,1300,777,2061,1252,738,733,1911,3344,29289,29250,29395,29395,29263,1573,1256,3199,1133,2913,2913,1098,1059,1032,865,1309,2772,29039,29074,2147483647,64554,18,65467,968,12068,810,54526,3,3,3,2
fist to thumbs,13:03:19.114,29056,6846,2680,1322,958,1283,782,2083,1261,729,747,1929,3335,29250,29241,29329,29355,29236,1546,1261,3229,1129,2953,2939,1133,1103,979,892,1322,2794,28977,28981,2147483647,64545,10,65457,968,12071,814,54530,3,3,3,2
fist to thumbs,13:03:19.215,29047,6890,2698,1300,931,1296,747,2109,1221,742,751,1924,3309,29337,29192,29307,29285,29157,1538,1243,3287,1142,2909,2975,1125,1098,1023,848,1287,2772,28999,28964,2147483647,64559,13,65463,964,12064,819,54523,3,3,3,2
fist to thumbs,13:03:19.315,29078,6855,2729,1287,936,1283,711,2043,1239,725,786,1937,3322,29192,29100,29245,29188,29096,1551,1252,3212,1125,2979,2975,1098,1094,1037,852,1296,2750,28990,29034,2147483647,64557,8,65454,965,12061,821,54519,3,3,3,2
fist to thumbs,13:03:19.417,28854,6925,2707,1313,944,1300,747,2039,1230,742,769,1911,3353,29320,29307,29302,29285,29315,1577,1256,3256,1177,2997,2975,1142,1125,1006,900,1322,2759,29008,28898,2147483647,64547,4,65459,969,12056,825,54514,3,3,3,2
fist to thumbs,13:03:19.514,29100,6903,2702,1318,931,1291,733,2043,1239,751,733,1911,3313,29258,29184,29377,29351,29241,1555,1248,3172,1120,2970,2979,1155,1111,1045,856,1344,2799,28964,29113,2147483647,64555,0,65446,968,12052,829,54511,3,3,3,2
fist to thumbs,13:03:19.616,29148,6877,2685,1300,922,1287,773,2021,1199,729,751,1937,3300,29263,29074,29333,29355,29109,1560,1265,3234,1125,2935,2975,1138,1072,1006,865,1322,2777,28832,29126,2147483647,64545,13,65453,963,12053,835,54511,3,3,3,2
fist to thumbs,13:03:19.724,29271,6868,2707,1309,971,1287,760,2047,1234,742,733,1973,3322,28964,28885,29368,29355,28814,1529,1199,3229,1168,2926,2939,1155,1076,1023,852,1305,2799,29153,29241,2147483647,64547,2,65445,951,12056,859,54516,3,3,3,2
fist to thumbs,13:03:19.817,29065,6837,2645,1313,953,1300,755,2083,1217,733,742,1942,3357,29232,29219,29368,29364,29241,1546,1230,3194,1168,2913,2961,1151,1076,1041,861,1349,2737,28937,29109,2147483647,64564,2,65460,939,12047,872,54505,3,3,3,2
fist to thumbs,13:03:19.914,29091,6881,2702,1313,975,1322,760,2069,1208,755,725,1955,3348,29271,29126,29359,29355,29166,1546,1217,3225,1129,2957,2979,1103,1116,1019,887,1327,2755,28968,29104,2147483647,64568,1,65462,935,12030,876,54487,3,3,3,2
rest in thumbs,13:03:20.014,29061,6829,2658,1344,927,1278,782,2043,1256,760,738,1924,3326,29232,29219,29359,29381,29258,1568,1243,3243,1142,2979,2931,1146,1103,1006,892,1366,2764,28898,28968,2147483647,64558,1,65453,933,12023,872,54479,3,3,3,2
rest in thumbs,13:03:20.115,29096,6837,2702,1335,931,1274,782,2052,1243,738,764,1937,3313,29315,29157,29302,29324,29162,1538,1256,3225,1125,2953,2944,1120,1111,1028,896,1327,2777,28933,29096,2147483647,64560,65528,65467,936,11998,861,54452,3,3,3,2
rest in thumbs,13:03:20.224,29188,6864,2680,1327,949,1265,804,2074,1199,733,738,1933,3313,29008,28920,29342,29373,29030,1516,1234,3238,1120,2966,2926,1111,1081,1032,830,1327,2768,29017,29135,2147483647,64547,5,65473,926,11974,856,54424,3,3,3,2
rest in thumbs,13:03:20.314,29074,6824,2663,1296,953,1291,777,2034,1230,751,738,1911,3357,29333,29162,29359,29302,29162,1568,1243,3194,1151,2970,3001,1146,1081,988,883,1335,2768,28955,29061,2147483647,64562,65519,65485,912,11969,852,54418,3,3,3,2
rest in thumbs,13:03:20.414,29096,6811,2645,1318,966,1274,755,2052,1226,720,764,1924,3370,29228,29109,29210,29285,29091,1533,1243,3251,1111,2992,2939,1146,1103,1032,909,1313,2733,28845,29069,2147483647,64557,65528,65485,905,11949,851,54395,3,3,3,2
rest in thumbs,13:03:20.514,29052,6851,2649,1274,949,1309,747,2074,1204,707,760,1942,3322,29267,29232,29403,29443,29311,1555,1239,3234,1125,2944,2944,1138,1076,1028,905,1318,2799,28850,29030,2147483647,64552,65533,65469,906,11956,853,54403,3,3,3,2
rest in thumbs,13:03:20.614,29148,6824,2641,1265,931,1287,751,2012,1252,751,742,1911,3326,29184,29113,29219,29250,29008,1542,1256,3247,1155,2957,2944,1129,1111,1019,878,1305,2786,28880,29065,2147483647,64536,65535,65476,908,11952,854,54399,3,3,3,2
rest in thumbs,13:03:20.714,29008,6815,2667,1278,940,1296,786,2096,1265,751,725,1977,3366,29271,29153,29223,29271,29201,1555,1274,3234,1155,2966,2944,1116,1085,1023,900,1313,2764,28942,28986,2147483647,64537,65531,65464,916,11943,859,54391,3,3,3,2
rest in thumbs,13:03:20.815,29096,6842,2702,1322,931,1318,760,2061,1243,733,725,1937,3353,29228,29298,29324,29355,29267,1564,1265,3216,1164,2948,2979,1155,1107,1032,861,1300,2768,28885,29100,2147483647,64531,65529,65484,920,11944,865,54392,3,3,3,2
rest in thumbs,13:03:20.914,29074,6851,2632,1305,918,1287,689,2039,1261,694,751,1902,3353,29254,29228,29324,29364,29307,1520,1221,3203,1138,2979,2961,1129,1094,1050,900,1353,2764,28854,29025,2147483647,64564,0,65484,921,11935,870,54383,3,3,3,2
rest in thumbs,13:03:21.023,29258,6824,2627,1287,971,1300,786,2061,1217,703,742,1951,3326,28995,28806,29390,29381,28946,1560,1270,3247,1173,2953,2957,1164,1050,1023,856,1322,2781,29219,29267,2147483647,64551,65520,65485,926,11938,874,54387,3,3,3,2
rest in thumbs,13:03:21.124,29210,6824,2654,1344,971,1278,755,2021,1217,738,729,1968,3339,28964,29122,29311,29333,28850,1590,1261,3208,1138,2975,2966,1142,1072,1067,852,1353,2759,29047,29214,2147483647,64556,65527,65481,934,11936,883,54386,3,3,3,2
rest in thumbs,13:03:21.215,29109,6763,2636,1318,936,1296,764,2052,1221,742,742,1924,3335,29263,29258,29390,29403,29315,1551,1261,3221,1182,2975,2970,1129,1081,1037,878,1318,2777,28942,29052,2147483647,64564,0,65473,939,11931,887,54381,3,3,3,2
rest in thumbs,13:03:21.315,29056,6811,2645,1300,958,1256,782,2061,1248,747,777,1924,3331,29192,29263,29346,29368,29206,1564,1248,3194,1155,2931,2983,1177,1085,1028,878,1327,2746,28845,29021,2147483647,64542,0,65470,935,11933,890,54383,3,3,3,2
rest in thumbs,13:03:21.414,29096,6776,2667,1313,936,1335,791,2030,1190,747,755,1942,3322,29276,29210,29289,29320,29201,1546,1270,3221,1177,2979,2922,1133,1103,1010,861,1344,2790,28942,29083,2147483647,64556,65530,65475,935,11924,889,54374,3,3,3,2
rest in thumbs,13:03:21.514,29030,6793,2645,1256,971,1221,760,2047,1217,742,720,1885,3322,29267,29056,29271,29258,29096,1538,1256,3186,1129,2975,2988,1129,1063,1037,878,1313,2772,28889,29012,2147483647,64564,65530,65481,933,11920,892,54370,3,3,3,2
rest in thumbs,13:03:21.614,29034,6815,2641,1274,975,1265,791,2052,1243,755,773,1929,3370,29280,29302,29416,29377,29280,1555,1252,3238,1186,3001,2966,1111,1081,988,865,1322,2746,28907,29109,2147483647,64555,65535,65486,932,11914,899,54364,3,3,3,2
rest in thumbs,13:03:21.715,29113,6837,2619,1335,984,1322,764,2039,1226,742,760,1924,3353,29162,29236,29373,29373,29280,1604,1261,3247,1138,2983,2983,1138,1116,1063,870,1283,2786,28872,29083,2147483647,64549,65530,65478,933,11917,904,54368,3,3,3,2
rest in thumbs,13:03:21.815,29069,6833,2636,1305,966,1296,795,2061,1234,742,733,1942,3331,29254,29184,29175,29170,29192,1560,1252,3229,1186,2966,2975,1146,1054,1050,887,1318,2759,28916,29034,2147483647,64552,65531,65477,933,11902,907,54352,3,3,3,2
rest in thumbs,13:03:21.914,29126,6833,2614,1340,931,1296,764,2017,1230,733,742,1933,3361,29201,29241,29228,29219,29206,1586,1204,3212,1199,2979,2988,1116,1054,1010,874,1313,2790,28911,29091,2147483647,64554,5,65476,925,11908,915,54358,3,3,3,2
rest in thumbs,13:03:22.014,29025,6807,2658,1322,984,1309,742,2030,1212,751,751,1933,3344,29250,29271,29245,29311,29280,1520,1270,3212,1129,2988,2970,1182,1107,979,883,1305,2777,28876,29021,2147483647,64560,65526,65485,923,11907,921,54358,3,3,3,2
rest in thumbs,13:03:22.114,29104,6767,2649,1313,944,1287,742,2052,1243,747,808,1880,3375,29228,29219,29276,29219,29223,1520,1261,3216,1160,2975,2983,1138,1107,1032,830,1331,2746,28920,29078,2147483647,64561,65534,65482,917,11908,930,54359,3,3,3,2
rest in thumbs,13:03:22.214,29061,6798,2649,1300,993,1313,777,2083,1217,742,773,1920,3317,29214,29192,29258,29298,29293,1568,1261,3221,1129,2975,2970,1133,1107,1037,861,1344,2759,28880,28999,2147483647,64564,65531,65470,916,11906,936,54358,3,3,3,2
rest in thumbs,13:03:22.324,29228,6815,2636,1283,949,1270,760,2100,1256,733,729,1933,3335,28937,29061,29241,29245,29069,1617,1217,3234,1146,2988,2961,1120,1125,1023,856,1313,2781,29166,29241,2147483647,64564,65528,65478,914,11908,939,54359,3,3,3,2
rest in thumbs,13:03:22.415,29052,6802,2627,1291,958,1296,751,2056,1243,742,742,1898,3335,29201,29179,29197,29219,29210,1542,1226,3225,1146,2988,2931,1116,1085,1001,870,1335,2724,28889,29061,2147483647,64567,65532,65476,913,11898,940,54349,3,3,3,2
rest in thumbs,13:03:22.514,29074,6798,2645,1278,971,1300,799,2052,1226,742,738,1889,3366,29285,29263,29324,29271,29263,1502,1221,3238,1125,2988,2979,1155,1089,1019,878,1335,2750,28924,29017,2147483647,64549,65531,65481,911,11895,942,54346,3,3,3,2
rest in thumbs,13:03:22.624,29280,6820,2636,1248,966,1296,747,2104,1252,755,707,1902,3348,28951,29078,29157,29179,29061,1533,1221,3208,1146,3049,2944,1146,1103,1001,870,1296,2772,29135,29232,2147483647,64556,65523,65480,905,11895,936,54345,3,3,3,2
rest in thumbs,13:03:22.715,29131,6785,2663,1327,962,1296,769,2025,1234,703,733,1902,3300,29263,29254,29245,29258,29276,1542,1217,3208,1164,2953,2944,1129,1085,1010,865,1313,2737,28894,29109,2147483647,64563,10,65483,898,11890,930,54338,3,3,3,2
rest in thumbs,13:03:22.815,29056,6811,2649,1300,940,1283,795,2039,1239,720,747,1955,3374,29219,29091,29104,29065,29034,1586,1226,3216,1177,2970,2983,1138,1085,1019,892,1340,2720,28828,29030,2147483647,64540,65528,65471,902,11887,922,54335,3,3,3,2
rest in thumbs,13:03:22.915,29056,6763,2645,1296,953,1318,769,2052,1226,729,738,1924,3348,29223,28946,29210,29232,28937,1538,1226,3225,1142,3014,2975,1138,1085,1028,861,1291,2759,28946,29065,2147483647,64542,0,65475,904,11882,920,54330,3,3,3,2
rest in thumbs,13:03:23.014,29113,6833,2641,1291,944,1296,786,2069,1226,747,747,1929,3436,29210,29175,29219,29175,29236,1546,1252,3221,1138,3032,2979,1164,1098,1059,878,1357,2750,28792,29047,2147483647,64549,65529,65487,909,11878,925,54326,3,3,3,2
rest in thumbs,13:03:23.116,29034,6824,2645,1296,975,1305,764,2065,1243,720,751,1889,3366,29307,29293,29315,29342,29298,1564,1256,3234,1116,3032,2957,1111,1081,1041,905,1322,2733,28920,29003,2147483647,64544,65535,65482,907,11873,937,54322,3,3,3,2
rest in thumbs,13:03:23.215,29021,6789,2654,1322,953,1287,795,2056,1248,742,747,1933,3361,29162,29228,29206,29219,29232,1507,1186,3247,1142,3058,2997,1116,1059,1023,856,1327,2746,28951,29021,2147483647,64559,65531,65472,907,11865,937,54313,3,3,3,2
rest in thumbs,13:03:23.315,29003,6767,2645,1335,971,1322,738,2030,1239,698,751,1964,3348,29258,29263,29210,29254,29311,1485,1226,3260,1182,3001,2939,1107,1059,1037,878,1331,2777,28854,29039,2147483647,64553,0,65489,909,11863,939,54311,3,3,3,2
rest in thumbs,13:03:23.414,29153,6789,2645,1287,949,1305,747,2109,1252,720,742,1885,3383,29219,29104,29126,29144,29122,1582,1252,3247,1120,3027,2975,1111,1081,1054,892,1327,2759,28880,29074,2147483647,64537,65523,65491,910,11855,941,54303,3,3,3,2
rest in thumbs,13:03:23.515,29061,6714,2623,1283,931,1322,773,2100,1208,725,747,1902,3344,29241,29223,29228,29214,29293,1560,1243,3216,1146,2979,3001,1111,1107,1019,865,1296,2750,28942,29056,2147483647,64551,65523,65499,912,11859,944,54308,3,3,3,2
rest in thumbs,13:03:23.613,29074,6789,2627,1305,979,1270,791,2061,1173,760,764,1924,3383,29271,29293,29276,29337,29263,1529,1221,3247,1186,3010,2992,1142,1103,1015,870,1300,2768,28933,29056,2147483647,64551,65525,65484,913,11861,944,54309,3,3,3,2
rest in thumbs,13:03:23.714,28990,6820,2671,1305,949,1313,782,2096,1217,733,773,1937,3379,29263,29074,29254,29267,29140,1551,1234,3234,1146,3001,2935,1146,1116,1023,865,1327,2768,29003,29043,2147483647,64547,65524,65481,915,11865,942,54314,3,3,3,2
rest in thumbs,13:03:23.817,29069,6798,2632,1274,931,1270,760,2052,1239,742,733,1929,3339,29324,29170,29324,29329,29214,1551,1256,3221,1142,2997,2970,1120,1089,984,883,1327,2764,29100,29078,2147483647,64566,65528,65480,920,11864,941,54313,3,3,3,2
rest in thumbs,13:03:23.914,29025,6785,2601,1265,975,1274,751,2025,1226,729,751,1902,3357,29236,29039,29263,29206,29122,1568,1248,3225,1129,3041,2957,1116,1063,1037,870,1327,2733,28880,29017,2147483647,64555,65528,65475,914,11865,942,54314,3,3,3,2
rest in thumbs,13:03:24.014,29052,6780,2601,1305,944,1287,755,2021,1199,725,725,1902,3383,29254,29184,29285,29263,29153,1560,1230,3265,1146,3067,2957,1120,1103,1032,892,1327,2746,29025,29074,2147483647,64546,65527,65481,909,11867,940,54315,3,3,3,2
rest in thumbs,13:03:24.115,28999,6758,2627,1278,979,1274,764,2043,1221,751,733,1894,3375,29232,29122,29214,29245,29131,1568,1234,3238,1190,3084,2957,1107,1094,1015,852,1331,2777,28920,29012,2147483647,64543,65532,65491,910,11867,941,54315,3,3,3,2
rest in thumbs,13:03:24.214,29052,6798,2641,1313,944,1291,760,2056,1217,777,720,1920,3370,29263,29170,29298,29307,29140,1546,1265,3243,1160,3093,2970,1089,1094,1050,878,1305,2724,29069,29074,2147483647,64554,65529,65479,906,11867,950,54316,3,3,3,2
rest in thumbs,13:03:24.315,29047,6811,2619,1313,949,1318,777,2017,1226,716,738,1889,3405,29210,29214,29109,29122,29219,1533,1252,3243,1129,3041,2970,1138,1098,1037,874,1300,2786,28924,29034,2147483647,64553,65524,65470,909,11875,957,54325,3,3,3,2
rest in thumbs,13:03:24.414,29056,6815,2597,1313,971,1261,773,2030,1239,733,720,1929,3348,29285,29188,29258,29320,29148,1551,1291,3234,1173,3036,2939,1164,1120,1001,865,1313,2755,28911,29012,2147483647,64559,65525,65481,904,11866,962,54316,3,3,3,2
rest in thumbs,13:03:24.515,29065,6798,2610,1287,971,1296,773,2043,1248,747,742,1911,3366,29236,29113,29223,29236,29096,1538,1234,3260,1186,3062,2953,1164,1142,1063,856,1274,2772,28955,29030,2147483647,64559,65533,65483,900,11861,962,54310,3,3,3,2
rest in thumbs,13:03:24.614,29012,6776,2605,1331,922,1313,755,2061,1234,742,773,1929,3388,29298,29166,29271,29271,29192,1555,1261,3238,1129,3045,2953,1138,1098,1015,848,1331,2755,29030,29003,2147483647,64542,65521,65485,897,11854,964,54303,3,3,3,2
rest in thumbs,13:03:24.715,29140,6758,2619,1274,944,1322,773,2074,1195,720,764,1911,3353,29228,29153,29293,29214,29109,1568,1252,3247,1142,3027,2944,1129,1098,1059,870,1322,2737,29039,29078,2147483647,64556,65527,65490,897,11843,963,54292,3,3,3,2
rest in thumbs,13:03:24.816,29021,6824,2636,1322,993,1230,782,2052,1212,742,773,1845,3370,29263,29087,29109,29126,29153,1551,1239,3247,1151,3120,2948,1155,1059,1045,878,1313,2772,28819,28968,2147483647,64542,3,65486,898,11834,960,54281,3,3,3,2
rest in thumbs,13:03:24.915,29078,6754,2597,1305,1019,1300,769,2043,1226,716,751,1911,3366,29214,29126,29267,29232,29144,1564,1248,3234,1142,3067,2988,1142,1094,1015,870,1313,2755,29025,29052,2147483647,64534,65525,65488,898,11825,960,54272,3,3,3,2
thumbs to fist,13:03:25.014,29025,6789,2627,1331,958,1291,804,2043,1243,720,738,1898,3322,29210,29118,29157,29223,29109,1555,1278,3229,1142,3049,2917,1120,1076,1032,861,1305,2746,28964,29034,2147483647,64566,65528,65492,894,11816,960,54262,3,3,3,2
thumbs to fist,13:03:25.116,29065,6776,2636,1340,949,1261,747,2052,1226,729,782,1889,3410,29285,29175,29263,29236,29179,1573,1234,3221,1111,3032,2926,1133,1116,1032,870,1291,2729,29091,29074,2147483647,64545,65525,65494,893,11812,961,54258,3,3,3,2
thumbs to fist,13:03:25.214,28986,6798,2614,1278,962,1331,751,2003,1226,733,742,1902,3357,29254,29135,29223,29245,29126,1568,1221,3225,1094,3076,2975,1151,1094,1037,892,1327,2715,29017,29078,2147483647,64536,65526,65498,891,11804,962,54250,3,3,3,2
thumbs to fist,13:03:25.324,29351,6815,2641,1309,971,1256,795,2065,1204,755,729,1924,3375,29065,28951,29104,28937,28995,1520,1256,3247,1129,3084,2961,1111,1072,1032,856,1331,2781,29197,29311,2147483647,64568,65525,65495,891,11796,962,54241,3,3,3,2
thumbs to fist,13:03:25.419,29034,6771,2605,1305,971,1305,777,2039,1195,738,751,1885,3353,29232,29241,29223,29241,29223,1577,1234,3212,1142,3120,2926,1142,1107,1019,874,1309,2772,29008,28977,2147483647,64549,65519,65493,891,11792,962,54237,3,3,3,2
thumbs to fist,13:03:25.515,29087,6807,2658,1270,958,1291,786,2069,1204,742,799,1894,3322,29302,29280,29267,29267,29245,1555,1256,3221,1155,3111,2957,1125,1089,1037,878,1274,2729,29052,29091,2147483647,64557,65521,65493,891,11786,961,54230,3,3,3,2
thumbs to fist,13:03:25.614,28990,6771,2627,1283,984,1287,747,2065,1173,738,733,1916,3370,29280,29267,29192,29214,29245,1564,1234,3243,1190,3102,2948,1120,1094,1041,878,1300,2816,29052,28964,2147483647,64546,65528,65496,892,11779,960,54224,3,3,3,2
thumbs to fist,13:03:25.713,28885,6798,2588,1296,940,1300,764,2056,1248,747,773,1902,3366,29285,29276,29276,29298,29302,1604,1239,3251,1160,3084,2957,1146,1081,1001,892,1309,2821,29017,28916,2147483647,64570,65517,65503,894,11767,960,54211,3,3,3,2
thumbs to fist,13:03:25.828,29232,6789,2619,1278,944,1322,795,2074,1217,755,733,1920,3370,29003,29056,28630,28757,29061,1586,1256,3287,1160,3168,2957,1146,1076,1041,848,1335,2729,29078,29228,2147483647,64545,65534,65492,894,11747,962,54190,3,3,3,2
thumbs to fist,13:03:25.914,28937,6820,2583,1261,949,1318,834,2047,1190,747,760,1929,3366,29289,29258,29197,29201,29351,1551,1274,3282,1133,3133,2970,1107,1111,1015,892,1344,2764,28964,28986,2147483647,64556,65526,65507,894,11748,962,54191,3,3,3,2
thumbs to fist,13:03:26.015,28946,6798,2654,1256,984,1283,769,2017,1208,725,764,1920,3353,29258,29219,29206,29254,29241,1577,1300,3291,1120,3124,2966,1155,1107,1019,922,1278,2737,29008,28933,2147483647,64556,65525,65507,890,11740,963,54183,3,3,3,2
thumbs to fist,13:03:26.115,28920,6820,2649,1313,958,1296,747,2043,1217,733,755,1872,3388,29289,29223,29074,29144,29311,1590,1256,3265,1125,3137,2948,1151,1094,1010,892,1313,2693,28920,28894,2147483647,64550,65522,65499,889,11737,963,54180,3,3,3,2
thumbs to fist,13:03:26.214,28990,6780,2619,1305,979,1287,773,2034,1234,729,742,1946,3339,29271,29250,29241,29241,29271,1590,1261,3256,1168,3111,2957,1177,1103,1054,909,1309,2746,29052,28955,2147483647,64544,65521,65499,890,11732,964,54175,3,3,3,2
thumbs to fist,13:03:26.315,28902,6763,2562,1287,940,1287,764,2047,1226,694,733,1916,3348,29228,29236,29245,29289,29232,1568,1234,3291,1151,3159,2957,1133,1103,1045,852,1305,2746,28964,28937,2147483647,64553,65516,65499,890,11736,964,54179,3,3,3,2
thumbs to fist,13:03:26.415,28937,6732,2632,1283,936,1296,782,2052,1208,782,764,1902,3331,29298,29241,29166,29188,29210,1586,1256,3282,1120,3177,3001,1129,1089,1010,861,1313,2702,28880,28955,2147483647,64554,65528,65498,892,11737,966,54181,3,3,3,2
thumbs to fist,13:03:26.515,28920,6719,2588,1278,949,1300,751,2052,1230,703,773,1924,3326,29232,29206,29135,29135,29214,1573,1291,3300,1164,3128,2992,1142,1098,1054,874,1274,2733,28880,28942,2147483647,64549,65528,65490,896,11739,972,54183,3,3,3,2
thumbs to fist,13:03:26.614,28995,6706,2575,1291,958,1265,707,2039,1226,694,720,1907,3353,29232,29307,29315,29315,29289,1586,1252,3295,1160,3102,2957,1125,1072,1006,852,1313,2742,28999,28942,2147483647,64565,65523,65500,898,11738,976,54183,3,3,3,2
thumbs to fist,13:03:26.714,28946,6723,2636,1305,966,1278,755,1995,1208,698,760,1924,3396,29210,29197,29223,29250,29214,1551,1239,3273,1151,3080,2988,1142,1089,993,856,1305,2768,28946,28924,2147483647,64543,65522,65507,896,11743,975,54188,3,3,3,2
thumbs to fist,13:03:26.817,29012,6723,2601,1265,927,1318,747,2047,1195,747,729,1929,3375,29381,29307,29179,29214,29267,1546,1234,3282,1160,3120,2961,1120,1072,993,900,1309,2777,28981,29012,2147483647,64560,65522,65503,892,11741,979,54185,3,3,3,2
thumbs to fist,13:03:26.914,28889,6789,2548,1305,979,1300,764,2039,1230,742,729,1911,3388,29346,29179,29206,29329,29245,1595,1239,3282,1129,3098,2988,1151,1076,1037,865,1331,2764,28964,28911,2147483647,64558,65526,65499,889,11740,985,54185,3,3,3,2
thumbs to fist,13:03:27.015,28990,6719,2592,1270,958,1248,755,2061,1256,716,751,1894,3282,29403,29258,29254,29311,29214,1564,1265,3287,1173,3128,2939,1151,1138,1032,918,1344,2786,29113,29043,2147483647,64563,65525,65516,889,11742,985,54187,3,3,3,2
thumbs to fist,13:03:27.124,29214,6723,2504,1283,949,1322,777,1986,1217,689,764,1951,3388,29109,28964,29091,29087,28907,1560,1248,3287,1151,3133,2948,1199,1085,1054,856,1349,2759,28986,29192,2147483647,64553,65519,65519,893,11735,976,54179,3,3,3,2
thumbs to fist,13:03:27.215,28898,6710,2566,1313,944,1261,773,1999,1221,755,760,1907,3396,29386,29307,29280,29289,29280,1564,1270,3243,1142,3146,2939,1125,1076,1041,887,1313,2764,28995,28937,2147483647,64550,65517,65526,900,11735,970,54179,3,3,3,2
thumbs to fist,13:03:27.314,28929,6684,2566,1309,1019,1265,777,2052,1226,755,760,1911,3401,29311,29175,29223,29201,29184,1586,1239,3260,1138,3106,2917,1142,1072,1037,874,1305,2729,28959,28898,2147483647,64553,65519,65509,902,11728,970,54173,3,3,3,2
thumbs to fist,13:03:27.414,28916,6692,2482,1278,936,1309,769,2030,1208,742,773,1876,3379,29373,29263,29192,29280,29307,1555,1274,3278,1111,3150,2913,1133,1111,1015,896,1287,2733,28977,28902,2147483647,64559,65514,65510,904,11724,972,54169,3,3,3,2
thumbs to fist,13:03:27.514,28981,6684,2531,1305,979,1270,777,2030,1234,707,738,1920,3379,29302,29153,29258,29245,29223,1573,1208,3243,1146,3080,2957,1142,1085,958,874,1335,2759,28951,28885,2147483647,64547,65524,65515,897,11723,968,54167,3,3,3,2
thumbs to fist,13:03:27.614,28920,6754,2562,1296,984,1300,799,2025,1243,694,773,1902,3375,29302,29210,29201,29228,29201,1586,1221,3256,1120,3142,2944,1146,1094,1001,856,1318,2772,28933,28911,2147483647,64555,65518,65504,897,11718,964,54161,3,3,3,2
thumbs to fist,13:03:27.714,28946,6666,2531,1318,971,1252,751,2021,1208,725,742,1920,3388,29333,29263,29214,29254,29241,1564,1230,3265,1142,3120,2957,1142,1094,1032,856,1322,2746,28894,28973,2147483647,64557,65528,65518,898,11704,963,54147,3,3,3,2
thumbs to fist,13:03:27.816,28920,6697,2487,1309,962,1291,760,2030,1212,738,733,1889,3401,29346,29201,29232,29241,29197,1560,1243,3304,1142,3133,2935,1116,1081,1006,896,1327,2772,28841,28929,2147483647,64553,65517,65519,901,11697,965,54140,3,3,3,2
thumbs to fist,13:03:27.914,28920,6662,2544,1309,940,1265,720,2065,1221,738,742,1929,3357,29329,29241,29293,29271,29263,1573,1243,3256,1138,3159,2979,1129,1054,1001,861,1309,2702,29039,28955,2147483647,64544,65520,65522,902,11686,965,54129,3,3,3,2
thumbs to fist,13:03:28.024,29162,6754,2513,1261,984,1256,786,2030,1217,711,760,1911,3357,29197,28929,29078,29109,28955,1560,1204,3247,1155,3084,2939,1212,1063,1041,861,1362,2759,28977,29170,2147483647,64538,65516,65520,903,11676,962,54118,3,3,3,2
thumbs to fist,13:03:28.115,28964,6675,2535,1322,984,1274,733,2034,1212,742,755,1880,3353,29443,29298,29298,29307,29311,1551,1261,3273,1164,3146,2939,1129,1067,1019,878,1331,2790,29104,28889,2147483647,64541,65515,65520,902,11668,959,54110,3,3,3,2
thumbs to fist,13:03:28.241,29047,6684,2540,1335,962,1291,773,2043,1234,725,729,1920,3379,28929,28995,29096,29078,28942,1533,1265,3287,1173,3111,2944,1195,1081,1050,848,1322,2764,29104,29100,2147483647,64563,65518,65520,899,11664,962,54106,3,3,3,2
thumbs to fist,13:03:28.315,28951,6692,2509,1300,944,1291,773,2030,1226,747,755,1902,3366,29359,29289,29258,29289,29245,1590,1261,3265,1089,3106,2966,1120,1089,1001,861,1331,2746,29065,28973,2147483647,64545,65526,65519,899,11666,962,54108,3,3,3,2
thumbs to fist,13:03:28.415,28876,6692,2500,1287,971,1318,751,2030,1230,747,742,1907,3366,29373,29170,29228,29219,29285,1564,1243,3247,1164,3142,2909,1072,1072,993,865,1335,2711,28973,28876,2147483647,64550,65517,65519,901,11670,959,54111,3,3,3,2
thumbs to fist,13:03:28.514,28937,6697,2557,1287,984,1278,764,2003,1226,742,747,1924,3370,29377,29250,29293,29280,29254,1551,1274,3265,1138,3146,2975,1160,1054,997,878,1349,2764,29021,28916,2147483647,64531,65506,65520,903,11672,970,54115,3,3,3,2
thumbs to fist,13:03:28.614,28937,6719,2496,1296,953,1252,755,2030,1199,711,738,1920,3396,29276,29254,29122,29074,29241,1542,1234,3234,1160,3111,2966,1120,1103,997,870,1313,2733,29043,28924,2147483647,64561,65516,65523,900,11673,983,54117,3,3,3,2
thumbs to fist,13:03:28.714,28933,6719,2482,1291,953,1265,769,2061,1230,733,733,1894,3392,29320,29298,29153,29144,29271,1551,1248,3225,1160,3128,2970,1133,1085,1015,874,1309,2759,29047,28937,2147483647,64572,65518,65520,899,11682,994,54127,3,3,3,2
thumbs to fist,13:03:28.816,28990,6701,2557,1270,975,1287,764,2056,1256,769,738,1885,3370,29359,29223,29210,29250,29206,1564,1243,3273,1155,3102,2961,1129,1111,1023,887,1305,2772,28999,28973,2147483647,64555,65527,65515,900,11686,995,54131,3,3,3,2
thumbs to fist,13:03:28.915,28920,6723,2518,1278,962,1248,742,1990,1243,711,751,1902,3379,29386,29201,29241,29276,29254,1533,1212,3295,1129,3133,2939,1142,1111,1028,918,1318,2737,29003,28880,2147483647,64547,65533,65506,903,11688,987,54132,3,3,3,2
thumbs to fist,13:03:29.015,28977,6710,2570,1278,984,1309,777,2030,1230,747,769,1894,3414,29333,29285,29333,29324,29258,1590,1234,3238,1177,3142,2931,1111,1059,1023,905,1300,2742,29087,28951,2147483647,64555,65525,65522,901,11682,986,54127,3,3,3,2
thumbs to fist,13:03:29.115,28872,6662,2553,1340,979,1291,742,2039,1217,755,742,1894,3375,29254,29236,29109,29144,29245,1577,1234,3247,1125,3106,2953,1133,1111,1019,856,1318,2733,29012,28946,2147483647,64546,65528,65525,884,11679,984,54122,3,3,3,2
thumbs to fist,13:03:29.215,28990,6670,2535,1291,962,1305,777,2043,1212,729,742,1920,3423,29416,29258,29355,29285,29342,1546,1226,3256,1146,3124,2961,1155,1089,1028,870,1300,2733,29043,28964,2147483647,64538,65505,65521,870,11689,992,54132,3,3,3,2
thumbs to fist,13:03:29.315,28959,6697,2553,1340,979,1318,738,1977,1199,720,769,1911,3388,29236,29017,29175,29175,29017,1555,1230,3251,1146,3133,2961,1138,1120,1001,892,1366,2733,29109,28968,2147483647,64550,65499,65529,845,11693,1005,54135,3,3,3,2
thumbs to fist,13:03:29.415,28977,6692,2531,1287,944,1283,769,2003,1252,729,729,1889,3379,29421,29333,29223,29315,29276,1586,1243,3265,1142,3120,2966,1146,1094,1023,896,1291,2759,29069,28973,2147483647,64564,65516,65516,836,11689,1021,54132,3,3,3,2
thumbs to fist,13:03:29.524,29184,6675,2553,1287,966,1278,755,1999,1248,711,751,1889,3392,29144,28955,28999,28968,28977,1560,1230,3278,1164,3124,2944,1146,1094,1050,874,1331,2729,29113,29122,2147483647,64566,65515,65514,839,11684,1024,54127,3,3,3,2
thumbs to fist,13:03:29.624,29245,6631,2509,1278,979,1265,795,2017,1221,720,747,1885,3379,29210,29034,29100,29074,29056,1529,1234,3247,1151,3168,2917,1111,1081,1063,874,1371,2707,29214,29175,2147483647,64554,65511,65516,854,11683,1025,54126,3,3,3,2
thumbs to fist,13:03:29.713,28889,6710,2518,1300,936,1278,755,2034,1239,742,742,1898,3366,29285,29263,29131,29096,29263,1560,1234,3247,1138,3168,2957,1151,1085,1041,927,1322,2742,29030,28911,2147483647,64551,65523,65523,875,11676,1027,54122,3,3,3,2
thumbs to fist,13:03:29.816,28929,6670,2518,1322,896,1305,742,2025,1212,689,764,1880,3401,29280,29206,29179,29184,29210,1568,1283,3269,1129,3150,2935,1129,1081,1067,834,1291,2733,29188,28977,2147483647,64554,65525,65524,889,11670,1014,54116,3,3,3,2
rest in fist,13:03:29.914,28964,6701,2522,1300,966,1296,764,2017,1190,716,760,1898,3414,29223,29245,29078,29135,29236,1577,1230,3265,1146,3137,2935,1120,1089,1050,861,1327,2746,29175,28995,2147483647,64558,65523,65524,887,11669,996,54113,3,3,3,2
rest in fist,13:03:30.014,28916,6666,2469,1291,944,1305,799,2043,1221,729,747,1880,3379,29267,29320,29170,29206,29280,1520,1230,3225,1142,3106,2957,1155,1081,984,887,1340,2750,29109,28942,2147483647,64539,65515,65525,881,11674,968,54115,3,3,3,2
rest in fist,13:03:30.114,29153,6684,2478,1300,975,1243,777,1995,1221,742,747,1885,3361,28964,29302,29126,29210,29126,1617,1248,3278,1133,3120,2926,1146,1111,1023,900,1353,2750,29100,29109,2147483647,64565,65521,65527,866,11671,970,54111,3,3,3,2
rest in fist,13:03:30.219,29091,6657,2535,1309,988,1283,747,2025,1248,733,747,1889,3418,28911,29047,29263,29245,29118,1573,1234,3282,1177,3106,2948,1120,1107,993,883,1318,2777,29003,29118,2147483647,64566,65521,65518,870,11670,979,54111,3,3,3,2
rest in fist,13:03:30.315,29012,6701,2504,1287,966,1291,755,2021,1204,751,716,1902,3370,29258,29153,29201,29175,29144,1560,1243,3269,1164,3137,2953,1133,1067,1001,870,1300,2764,29223,28995,2147483647,64545,65528,65516,889,11670,981,54112,3,3,3,2
rest in fist,13:03:30.415,29030,6728,2509,1322,984,1309,720,2012,1221,711,751,1920,3396,29228,29219,29245,29241,29250,1524,1261,3260,1125,3111,2944,1142,1067,1019,861,1287,2759,29144,29091,2147483647,64546,65523,65514,895,11674,975,54117,3,3,3,2
rest in fist,13:03:30.515,29083,6714,2575,1296,979,1296,764,2047,1261,711,729,1933,3414,29228,29307,29280,29206,29289,1555,1221,3260,1177,3124,2931,1160,1067,997,896,1283,2746,29162,29052,2147483647,64554,65519,65520,895,11677,976,54120,3,3,3,2
rest in fist,13:03:30.615,29039,6666,2478,1300,988,1274,764,2017,1256,703,733,1902,3383,29056,29197,29201,29192,29214,1551,1265,3278,1142,3120,2944,1138,1041,1023,878,1287,2720,29170,28986,2147483647,64533,65530,65514,895,11682,976,54124,3,3,3,2
rest in fist,13:03:30.715,29003,6657,2491,1318,958,1256,764,2012,1243,711,716,1872,3353,29175,29293,29201,29184,29236,1546,1226,3216,1182,3089,2931,1186,1081,1032,914,1283,2742,29135,29003,2147483647,64548,65526,65526,897,11670,973,54113,3,3,3,2
rest in fist,13:03:30.815,29065,6670,2504,1291,918,1287,773,2043,1217,716,716,1889,3383,29047,29122,29320,29258,29113,1551,1256,3221,1125,3098,2944,1120,1094,1001,887,1283,2737,29126,29025,2147483647,64544,65525,65501,898,11668,970,54110,3,3,3,2
rest in fist,13:03:30.915,29021,6684,2522,1274,949,1265,769,2021,1256,681,751,1885,3366,28850,29258,29329,29280,29285,1599,1226,3243,1164,3076,2939,1125,1081,975,865,1344,2750,29197,28959,2147483647,64560,65515,65515,892,11672,978,54115,3,3,3,2
rest in fist,13:03:31.014,29052,6648,2487,1300,958,1283,742,1990,1212,733,742,1924,3353,28850,29223,29192,29166,29293,1542,1212,3247,1146,3102,2887,1142,1085,993,852,1309,2733,29091,29017,2147483647,64565,65522,65522,889,11672,982,54115,3,3,3,2
rest in fist,13:03:31.115,29012,6688,2509,1322,971,1278,751,2012,1204,716,764,1916,3348,29030,29293,29307,29320,29254,1577,1239,3251,1155,3155,2966,1146,1103,1041,852,1287,2768,29135,29061,2147483647,64552,65524,65522,888,11673,982,54115,3,3,3,2
rest in fist,13:03:31.214,29065,6728,2522,1309,949,1261,782,1999,1217,733,751,1898,3379,28806,29188,29166,29223,29197,1590,1265,3243,1155,3106,2939,1103,1085,1001,865,1309,2733,29096,29021,2147483647,64548,65519,65512,890,11671,983,54114,3,3,3,2
rest in fist,13:03:31.324,29192,6670,2509,1300,931,1283,773,2034,1208,755,786,1924,3366,29258,29056,29017,29025,29025,1507,1226,3234,1133,3146,2957,1111,1072,1041,834,1322,2759,29135,29118,2147483647,64564,65523,65515,893,11670,986,54113,3,3,3,2
rest in fist,13:03:31.416,28911,6675,2474,1291,944,1274,755,2021,1204,725,760,1907,3357,28880,29223,29285,29236,29179,1551,1283,3269,1129,3168,2948,1138,1094,1015,861,1313,2720,29201,28951,2147483647,64559,65522,65516,896,11676,990,54120,3,3,3,2
rest in fist,13:03:31.515,29030,6679,2469,1283,958,1305,764,1999,1212,694,733,1898,3339,29074,29263,29197,29148,29293,1533,1212,3238,1129,3084,2931,1098,1076,1001,870,1309,2724,29096,28986,2147483647,64559,65524,65507,893,11678,993,54123,3,3,3,2
rest in fist,13:03:31.616,29074,6692,2518,1344,975,1296,755,1977,1239,685,799,1867,3370,28907,29298,29219,29241,29263,1542,1234,3221,1116,3102,2948,1151,1089,1028,861,1300,2729,29192,29083,2147483647,64560,65519,65513,893,11686,994,54131,3,3,3,2
rest in fist,13:03:31.714,29030,6657,2509,1309,962,1287,764,2039,1212,703,733,1894,3353,28858,29245,29210,29276,29276,1555,1261,3221,1177,3137,2953,1142,1089,1067,839,1274,2772,29091,29030,2147483647,64551,65521,65525,897,11689,999,54134,3,3,3,2
rest in fist,13:03:31.816,29083,6648,2452,1300,953,1296,751,1995,1252,738,755,1898,3353,28946,29232,29258,29271,29228,1546,1252,3225,1138,3146,2966,1133,1072,1019,870,1296,2733,29153,29030,2147483647,64545,65522,65510,905,11695,1009,54142,3,3,3,2
rest in fist,13:03:31.915,28981,6644,2522,1283,931,1278,725,1999,1243,742,769,1907,3309,28911,29201,29258,29228,29250,1546,1270,3256,1125,3093,2953,1142,1067,1028,826,1305,2729,29148,28999,2147483647,64569,65522,65526,906,11690,1016,54138,3,3,3,2
rest in fist,13:03:32.014,29056,6688,2509,1318,958,1270,786,2021,1230,707,773,1907,3348,28823,29364,29311,29298,29390,1533,1226,3278,1125,3159,2922,1151,1072,1001,883,1322,2764,29170,29069,2147483647,64570,65526,65530,906,11691,1013,54139,3,3,3,2
rest in fist,13:03:32.115,28876,6648,2487,1309,949,1265,769,2012,1226,694,755,1911,3357,28788,29223,29228,29236,29263,1573,1239,3251,1155,3194,2922,1120,1085,1054,870,1318,2724,29175,28920,2147483647,64555,65514,65515,925,11683,979,54128,3,3,3,2
rest in fist,13:03:32.214,28951,6670,2465,1313,966,1265,738,1986,1239,698,738,1898,3331,28959,29293,29285,29201,29271,1533,1226,3269,1164,3150,2961,1142,1085,1023,865,1335,2746,29236,28990,2147483647,64526,65519,65498,965,11670,968,54117,3,3,3,2
rest in fist,13:03:32.314,29034,6670,2474,1300,971,1239,769,1977,1261,707,747,1898,3383,28854,29188,29228,29241,29192,1520,1252,3225,1138,3120,2939,1142,1059,1028,861,1296,2733,29148,29021,2147483647,64530,0,65507,966,11668,970,54116,3,3,3,2
rest in fist,13:03:32.414,28951,6640,2518,1362,979,1278,769,2030,1230,738,764,1894,3348,28999,29280,29315,29280,29298,1560,1221,3260,1094,3168,2931,1142,1107,1006,848,1313,2737,29118,29021,2147483647,64574,65528,65506,948,11659,1006,54108,3,3,3,2
rest in fist,13:03:32.515,28955,6648,2465,1309,953,1287,764,1986,1212,707,720,1867,3353,29043,29219,29232,29219,29263,1555,1243,3190,1142,3142,2948,1146,1063,988,865,1291,2711,29087,28916,2147483647,64585,65527,65517,931,11662,1016,54110,3,3,3,2
rest in fist,13:03:32.615,28933,6618,2509,1274,1015,1265,742,1964,1234,720,738,1911,3326,28911,29254,29302,29271,29289,1533,1243,3229,1155,3150,2909,1168,1107,1037,870,1340,2750,29166,28867,2147483647,64532,65524,4,943,11654,998,54103,3,3,3,2
rest in fist,13:03:32.715,28986,6684,2513,1296,940,1291,760,1999,1208,720,733,1898,3375,28951,29219,29232,29263,29267,1516,1221,3278,1155,3168,2935,1116,1072,1010,843,1300,2737,29223,28986,2147483647,64542,65519,7,956,11642,993,54090,3,3,3,2
rest in fist,13:03:32.816,29030,6666,2496,1287,993,1309,760,1999,1217,698,751,1902,3357,28964,29285,29337,29364,29293,1564,1204,3256,1133,3186,2909,1151,1089,1006,887,1318,2768,29122,28946,2147483647,64548,65527,65531,952,11647,1002,54096,3,3,3,2
rest in fist,13:03:32.914,28999,6688,2518,1331,993,1287,773,1968,1186,764,716,1858,3339,28850,29214,29250,29228,29258,1564,1261,3243,1151,3155,2917,1138,1107,1001,861,1318,2781,29175,28942,2147483647,64544,65525,65527,944,11643,1005,54092,3,3,3,2
rest in fist,13:03:33.014,29047,6675,2557,1256,997,1296,720,2021,1212,733,729,1885,3357,29052,29219,29232,29241,29293,1546,1234,3208,1182,3177,2926,1168,1067,1019,861,1313,2733,29091,29052,2147483647,64553,65518,65530,942,11646,1008,54093,3,3,3,2
rest in fist,13:03:33.115,29140,6675,2465,1318,953,1283,786,2021,1234,760,725,1951,3357,29021,29285,29315,29289,29280,1542,1256,3238,1116,3164,2891,1177,1085,1028,892,1300,2737,29245,29179,2147483647,64560,65533,65530,940,11641,1004,54089,3,3,3,2
rest in fist,13:03:33.214,28990,6684,2504,1340,966,1300,760,2021,1248,716,751,1885,3326,28894,29228,29236,29250,29236,1524,1256,3273,1142,3203,2922,1138,1072,1015,896,1313,2737,29078,29017,2147483647,64552,65522,65527,939,11638,1004,54086,3,3,3,2
rest in fist,13:03:33.315,29140,6675,2474,1318,975,1265,751,2034,1230,711,764,1911,3357,28854,29403,29250,29293,29368,1551,1195,3265,1155,3098,2900,1133,1050,1006,878,1331,2724,29214,29153,2147483647,64551,65516,0,934,11642,1004,54089,3,3,3,2
rest in fist,13:03:33.415,28929,6657,2460,1313,993,1296,760,2030,1256,738,773,1902,3353,28916,29267,29254,29307,29210,1560,1265,3225,1177,3146,2922,1116,1059,1059,874,1287,2764,29122,28999,2147483647,64556,65517,65533,930,11637,1002,54084,3,3,3,2
rest in fist,13:03:33.515,28999,6635,2460,1283,962,1305,769,1995,1199,742,751,1920,3392,28894,29324,29315,29315,29307,1546,1234,3260,1138,3172,2895,1129,1076,1019,870,1327,2720,29179,29034,2147483647,64535,65524,65530,930,11640,1006,54087,3,3,3,2
rest in fist,13:03:33.615,28990,6648,2518,1300,958,1252,764,2025,1217,707,725,1924,3353,29017,29324,29201,29263,29364,1538,1230,3265,1155,3177,2917,1155,1067,1059,843,1322,2707,29122,28907,2147483647,64552,65522,65520,932,11639,1012,54087,3,3,3,2
rest in fist,13:03:33.715,28964,6662,2474,1313,993,1283,769,2021,1217,755,742,1867,3353,28942,29386,29241,29320,29408,1520,1239,3221,1173,3186,2957,1146,1107,1006,870,1265,2759,29258,29030,2147483647,64559,65528,65526,934,11641,1018,54090,3,3,3,2
rest in fist,13:03:33.825,29078,6644,2491,1313,971,1287,773,2025,1212,760,760,1858,3339,29250,29201,29017,29025,29232,1555,1204,3212,1182,3172,2909,1142,1041,1019,874,1300,2720,29118,29083,2147483647,64543,65517,65518,935,11647,1019,54096,3,3,3,2
rest in fist,13:03:33.919,29003,6631,2487,1309,971,1265,742,1990,1190,738,725,1894,3361,28929,29416,29307,29302,29416,1533,1230,3287,1103,3146,2878,1142,1054,1023,874,1305,2750,29337,29043,2147483647,64549,65530,65529,931,11647,1015,54095,3,3,3,2
rest in fist,13:03:34.021,29131,6666,2496,1296,979,1283,733,2025,1230,742,747,1894,3353,29302,29245,28766,28986,29258,1551,1261,3269,1138,3142,2900,1111,1085,1032,870,1296,2733,29109,29122,2147483647,64554,65520,65533,930,11650,1016,54098,3,3,3,2
rest in fist,13:03:34.114,29008,6679,2469,1291,984,1243,760,2008,1182,694,742,1902,3383,28933,29434,29263,29311,29390,1533,1256,3229,1125,3194,2922,1129,1072,1032,852,1309,2729,29201,29069,2147483647,64562,65516,0,930,11653,1024,54103,3,3,3,2
rest in fist,13:03:34.215,29109,6666,2474,1287,931,1300,733,1946,1243,725,738,1872,3388,28894,29324,29219,29228,29302,1551,1217,3229,1164,3164,2909,1125,1085,1028,843,1318,2764,29131,29140,2147483647,64556,65521,65529,929,11656,1028,54105,3,3,3,2
rest in fist,13:03:34.314,29184,6697,2478,1309,997,1300,751,1990,1234,733,760,1876,3361,28937,29342,29245,29285,29395,1546,1256,3225,1146,3155,2931,1125,1085,1045,874,1305,2764,29122,29153,2147483647,64543,65523,65522,929,11653,1023,54102,3,3,3,2
rest in fist,13:03:34.414,29219,6684,2474,1274,984,1270,755,1990,1234,729,729,1876,3339,28854,29364,29333,29311,29307,1551,1261,3234,1107,3186,2869,1168,1067,1028,900,1291,2746,29214,29140,2147483647,64548,65524,65534,930,11645,1014,54093,3,3,3,2
rest in fist,13:03:34.515,29192,6640,2465,1278,984,1278,777,2003,1261,729,747,1845,3353,28788,29333,29219,29232,29399,1529,1230,3216,1133,3115,2874,1111,1085,1001,865,1309,2759,29087,29104,2147483647,64555,65521,65531,930,11641,1013,54089,3,3,3,2
rest in fist,13:03:34.615,29175,6701,2430,1287,975,1305,777,1999,1234,729,747,1902,3379,28920,29403,29245,29267,29368,1564,1248,3221,1125,3164,2838,1160,1089,1045,861,1309,2711,29184,29157,2147483647,64560,65515,65527,927,11634,1016,54082,3,3,3,2
rest in fist,13:03:34.714,29140,6644,2469,1270,971,1291,777,2003,1221,755,760,1889,3388,28770,29351,29250,29245,29364,1542,1243,3256,1146,3150,2878,1142,1103,958,856,1322,2724,29065,29188,2147483647,64545,65524,65525,929,11632,1014,54081,3,3,3,2
rest in fist,13:03:34.818,29236,6688,2456,1318,1006,1256,769,1964,1217,742,738,1885,3326,29087,29346,29258,29254,29381,1551,1243,3229,1138,3102,2904,1120,1081,1010,922,1322,2702,29153,29197,2147483647,64546,65516,5,932,11635,1012,54083,3,3,3,2
rest in fist,13:03:34.915,29153,6653,2531,1287,988,1270,782,2043,1234,720,747,1916,3361,29118,29359,29245,29285,29351,1551,1217,3251,1129,3164,2891,1103,1094,997,892,1322,2764,29166,29175,2147483647,64538,65522,65529,931,11627,1011,54074,3,3,3,2
fist to point,13:03:35.015,29228,6653,2513,1340,979,1300,786,1973,1212,729,716,1951,3361,29197,29408,29280,29271,29421,1542,1243,3229,1129,3133,2869,1129,1067,1015,883,1335,2759,29175,29267,2147483647,64552,65517,65520,929,11623,1009,54071,3,3,3,2
fist to point,13:03:35.115,29188,6684,2513,1278,979,1265,751,2012,1230,738,760,1863,3353,29140,29399,29263,29214,29377,1538,1239,3216,1129,3164,2926,1138,1089,1001,878,1296,2737,29135,29144,2147483647,64556,65514,65529,928,11621,1006,54068,3,3,3,2
fist to point,13:03:35.215,29206,6622,2460,1261,958,1300,738,2008,1270,782,786,1898,3366,29069,29395,29267,29245,29412,1538,1256,3260,1177,3168,2843,1138,1081,1001,852,1309,2729,29197,29153,2147483647,64557,65517,65531,925,11625,1005,54072,3,3,3,2
fist to point,13:03:35.315,29223,6635,2500,1305,962,1274,729,1990,1234,725,742,1920,3348,29096,29289,29228,29197,29359,1538,1256,3265,1142,3128,2830,1133,1072,993,905,1300,2733,29087,29126,2147483647,64572,65526,65525,927,11622,1007,54069,3,3,3,2
fist to point,13:03:35.414,29201,6635,2504,1296,962,1248,751,1995,1230,703,685,1898,3383,29100,29302,29254,29276,29285,1560,1239,3216,1146,3128,2922,1133,1050,1006,821,1287,2750,29148,29179,2147483647,64556,65516,65524,932,11623,1011,54071,3,3,3,2
fist to point,13:03:35.515,29254,6635,2438,1300,914,1261,755,2030,1217,777,755,1889,3335,29065,29241,29236,29276,29250,1542,1208,3278,1151,3111,2939,1155,1076,1015,874,1322,2764,29140,29258,2147483647,64553,65525,65535,935,11625,1011,54073,3,3,3,2
fist to point,13:03:35.615,29170,6618,2452,1313,949,1239,773,1990,1190,707,760,1854,3396,29162,29118,29315,29311,29025,1529,1283,3221,1160,3177,2895,1120,1107,1001,905,1322,2737,29096,29170,2147483647,64553,65524,65526,940,11616,1006,54064,3,3,3,2
fist to point,13:03:35.715,29250,6635,2465,1331,953,1265,773,1973,1221,720,742,1916,3383,29056,29236,29280,29245,29206,1560,1265,3247,1120,3168,2931,1151,1045,1001,834,1344,2742,29192,29223,2147483647,64558,65519,65526,937,11620,1003,54067,3,3,3,2
fist to point,13:03:35.819,29188,6644,2452,1318,962,1248,747,2039,1195,711,707,1929,3348,29087,29192,29228,29214,29214,1533,1230,3243,1146,3150,2900,1146,1098,1006,883,1331,2729,29126,29201,2147483647,64549,65521,65529,932,11624,1006,54071,3,3,3,2
fist to point,13:03:35.915,29219,6666,2452,1331,984,1248,747,2017,1190,698,751,1916,3414,29104,29232,29245,29232,29271,1551,1234,3229,1103,3137,2900,1129,1076,975,870,1344,2768,29192,29201,2147483647,64553,65512,65533,933,11615,1009,54062,3,3,3,2
fist to point,13:03:36.015,29144,6666,2452,1248,988,1274,769,2025,1208,751,786,1880,3383,29052,29170,29228,29250,29214,1542,1265,3265,1120,3168,2957,1133,1059,1001,896,1296,2746,29276,29192,2147483647,64558,65518,2,930,11612,1006,54060,3,3,3,2
fist to point,13:03:36.115,29184,6644,2478,1287,979,1287,764,1999,1243,738,760,1876,3388,29140,29263,29302,29329,29267,1560,1265,3238,1133,3115,2891,1164,1072,1001,887,1327,2759,29250,29236,2147483647,64566,65525,2,930,11600,1006,54046,3,3,3,2
fist to point,13:03:36.215,29210,6635,2491,1322,971,1305,799,2017,1226,760,698,1876,3423,29091,29232,29276,29263,29197,1516,1226,3247,1133,3172,2891,1142,1059,988,896,1335,2711,29184,29201,2147483647,64560,65516,5,929,11598,1009,54045,3,3,3,2
fist to point,13:03:36.322,29250,6662,2456,1305,984,1327,764,1995,1226,725,760,1894,3379,29232,29039,28757,28898,29069,1520,1226,3269,1138,3150,2909,1164,1076,1072,843,1335,2742,29083,29179,2147483647,64534,65528,65525,932,11598,1011,54046,3,3,3,2
fist to point,13:03:36.414,29192,6626,2509,1309,962,1274,755,1995,1234,720,751,1937,3361,29091,29135,29192,29219,29250,1582,1256,3208,1142,3177,2917,1133,1076,1010,861,1300,2777,29126,29113,2147483647,64546,65519,5,935,11595,1014,54043,3,3,3,2
fist to point,13:03:36.515,29153,6701,2513,1335,953,1278,769,1999,1217,707,760,1867,3383,29140,29003,29329,29307,29157,1524,1248,3256,1138,3155,2895,1125,1103,1010,865,1340,2742,29293,29184,2147483647,64558,65515,65526,933,11591,1019,54040,3,3,3,2
fist to point,13:03:36.615,29263,6714,2540,1278,988,1243,764,1999,1226,751,742,1907,3375,29069,28854,29245,29175,28836,1546,1265,3243,1133,3120,2895,1094,1072,1050,843,1318,2742,29131,29188,2147483647,64556,65520,65529,930,11585,1016,54033,3,3,3,2
fist to point,13:03:36.715,29188,6719,2518,1331,949,1265,751,2030,1208,742,742,1845,3326,29192,28955,29311,29320,29047,1524,1226,3238,1173,3102,2913,1133,1094,1010,883,1291,2764,29289,29153,2147483647,64550,65519,65529,935,11581,1006,54028,3,3,3,2
fist to point,13:03:36.819,29201,6745,2518,1300,949,1274,764,1973,1186,733,764,1885,3427,29083,28858,29285,29228,28902,1520,1204,3238,1160,3168,2917,1120,1072,1015,874,1327,2790,29359,29245,2147483647,64542,65520,65535,948,11570,990,54017,3,3,3,2
fist to point,13:03:36.916,29087,6710,2526,1291,993,1265,760,2030,1239,747,733,1876,3418,29025,29091,29250,29311,28999,1555,1204,3238,1116,3146,2909,1173,1072,984,834,1305,2729,29293,29206,2147483647,64544,65513,16,949,11561,986,54008,3,3,3,2
fist to point,13:03:37.015,29258,6714,2592,1296,962,1243,751,2056,1155,733,755,1858,3357,29025,28766,29210,29311,28819,1546,1248,3247,1138,3190,2900,1116,1037,1023,865,1300,2772,29140,29201,2147483647,64555,65518,12,949,11552,986,53999,3,3,3,2
fist to point,13:03:37.116,29223,6750,2540,1239,966,1270,773,2003,1208,760,729,1911,3331,28959,28814,29214,29232,28907,1577,1230,3260,1151,3203,2874,1120,1107,979,856,1318,2759,29267,29197,2147483647,64552,65528,65530,947,11562,988,54009,3,3,3,2
fist to point,13:03:37.215,29254,6714,2557,1291,958,1261,760,2003,1190,747,720,1924,3366,29030,28902,29245,29293,28836,1524,1261,3243,1133,3212,2895,1116,1085,1010,892,1322,2746,29351,29250,2147483647,64545,65519,2,945,11561,979,54007,3,3,3,2
fist to point,13:03:37.316,29144,6732,2566,1278,966,1265,738,1986,1208,755,720,1885,3344,28959,28986,29223,29228,28863,1546,1248,3238,1116,3150,2891,1116,1107,1019,883,1300,2746,29144,29162,2147483647,64542,65527,15,939,11563,984,54008,3,3,3,2
fist to point,13:03:37.425,29245,6767,2562,1313,966,1239,751,1981,1190,703,725,1867,3322,29100,29307,29039,29065,29267,1524,1226,3229,1120,3190,2895,1168,1067,1041,878,1296,2768,29148,29210,2147483647,64556,65511,21,932,11559,985,54004,3,3,3,2
fist to point,13:03:37.516,29157,6710,2588,1318,979,1283,769,2021,1239,760,760,1920,3374,28951,28999,29188,29236,28788,1582,1274,3282,1164,3106,2926,1138,1089,1010,874,1305,2777,29153,29162,2147483647,64565,65518,19,927,11552,983,53996,3,3,3,2
fist to point,13:03:37.616,29289,6710,2597,1296,966,1270,729,1986,1199,742,703,1907,3366,29017,29078,29302,29298,29047,1551,1243,3238,1111,3124,2931,1164,1072,1006,878,1291,2750,29245,29210,2147483647,64551,65518,18,933,11548,983,53993,3,3,3,2
fist to point,13:03:37.714,29140,6754,2592,1283,958,1309,764,1977,1226,742,791,1889,3357,28973,28784,29210,29276,28854,1568,1217,3265,1182,3208,2887,1155,1098,1072,887,1371,2759,29241,29166,2147483647,64521,65521,5,932,11558,982,54003,3,3,3,2
fist to point,13:03:37.816,29206,6728,2592,1278,962,1278,751,1977,1212,769,760,1880,3317,29039,29096,29285,29302,28889,1555,1204,3243,1142,3256,2913,1177,1103,1050,914,1309,2755,29293,29236,2147483647,64537,65526,5,936,11556,978,54000,3,3,3,2
fist to point,13:03:37.915,29206,6741,2601,1291,962,1270,782,1986,1212,711,755,1902,3357,28942,28894,29184,29276,29052,1564,1261,3269,1138,3208,2926,1146,1072,1032,874,1322,2786,29122,29126,2147483647,64553,65530,9,938,11555,978,54000,3,3,3,2
fist to point,13:03:38.015,29153,6723,2588,1291,971,1309,751,2025,1204,747,725,1929,3313,28990,28964,29241,29298,28885,1568,1239,3291,1177,3238,2909,1195,1111,1006,861,1318,2746,29271,29162,2147483647,64541,65517,6,939,11558,987,54004,3,3,3,2
fist to point,13:03:38.124,29214,6736,2597,1305,962,1230,733,1977,1217,760,747,1876,3317,29157,29179,28977,28964,29223,1538,1256,3247,1155,3208,2891,1155,1072,953,861,1327,2746,29228,29179,2147483647,64571,65503,11,929,11550,1001,53996,3,3,3,2
fist to point,13:03:38.216,29061,6771,2535,1305,966,1300,764,1999,1239,755,716,1898,3295,29034,28911,29267,29355,28933,1546,1239,3256,1155,3216,2944,1177,1098,1076,892,1300,2746,29197,29140,2147483647,64553,65526,5,916,11549,999,53994,3,3,3,2
fist to point,13:03:38.315,29232,6736,2583,1305,931,1327,760,1977,1217,725,751,1924,3287,28942,29030,29258,29236,28999,1551,1256,3269,1116,3229,2917,1155,1111,1019,905,1353,2772,29201,29184,2147483647,64571,65512,27,912,11546,999,53991,3,3,3,2
fist to point,13:03:38.415,29219,6723,2548,1335,931,1243,773,1986,1186,729,755,1898,3278,29017,28845,29342,29337,28898,1502,1252,3273,1107,3172,2939,1120,1072,1023,909,1331,2759,29245,29197,2147483647,64529,65513,65534,906,11553,1001,53997,3,3,3,2
fist to point,13:03:38.514,29241,6763,2544,1305,975,1309,799,1924,1182,742,738,1933,3278,29025,29126,29307,29276,29034,1546,1230,3260,1111,3164,2913,1138,1111,1015,900,1305,2737,29320,29214,2147483647,64535,65515,1,907,11556,1011,54002,3,3,3,2
fist to point,13:03:38.617,29135,6771,2601,1239,988,1265,733,2021,1177,729,738,1898,3295,28959,28775,29228,29280,28814,1555,1226,3265,1120,3256,2895,1142,1103,1015,900,1322,2781,29228,29263,2147483647,64542,65510,0,909,11564,1019,54010,3,3,3,2
fist to point,13:03:38.715,29271,6728,2619,1274,979,1248,782,1973,1230,729,769,1916,3335,29021,28832,29386,29386,28863,1551,1239,3282,1107,3229,2904,1151,1081,1023,856,1278,2764,29285,29232,2147483647,64535,65526,65522,906,11566,1020,54012,3,3,3,2
fist to point,13:03:38.818,29250,6736,2562,1296,949,1274,751,2008,1204,733,720,1942,3256,29003,28810,29351,29289,28907,1542,1234,3295,1129,3216,2860,1173,1107,1059,843,1322,2729,29192,29179,2147483647,64555,65527,65527,899,11568,1024,54013,3,3,3,2
fist to point,13:03:38.915,29223,6692,2566,1270,979,1265,733,2030,1195,738,738,1929,3300,29052,28872,29285,29267,28867,1564,1291,3229,1160,3238,2865,1120,1089,1006,887,1296,2772,29109,29223,2147483647,64560,65521,65525,886,11570,1030,54015,3,3,3,2
fist to point,13:03:39.015,29157,6754,2570,1296,944,1274,729,1964,1221,733,716,1911,3317,28973,29074,29285,29276,28828,1551,1252,3309,1120,3287,2895,1195,1111,993,843,1300,2755,29030,29144,2147483647,64543,65515,65520,884,11564,1030,54009,3,3,3,2
fist to point,13:03:39.116,29179,6750,2548,1287,927,1252,782,1977,1199,751,764,1898,3273,29017,28924,29386,29430,28898,1538,1217,3291,1138,3265,2900,1199,1107,1001,878,1318,2768,29144,29241,2147483647,64557,65517,12,884,11560,1032,54006,3,3,3,2
fist to point,13:03:39.215,29236,6714,2535,1291,953,1265,755,1986,1230,764,747,1902,3256,28968,28788,29355,29368,28806,1498,1234,3238,1164,3304,2904,1182,1081,1015,848,1313,2812,29104,29188,2147483647,64559,65517,4,881,11559,1030,54004,3,3,3,2
fist to point,13:03:39.316,29236,6710,2504,1283,962,1270,777,2034,1199,716,703,1898,3251,29003,28898,29280,29329,28889,1568,1256,3265,1129,3225,2909,1195,1111,993,874,1331,2777,29069,29170,2147483647,64552,65523,65531,879,11562,1030,54007,3,3,3,2
fist to point,13:03:39.415,29197,6679,2544,1309,975,1239,773,1973,1230,703,694,1876,3282,28990,28885,29364,29364,28999,1542,1248,3291,1155,3234,2847,1177,1111,984,874,1265,2750,29118,29188,2147483647,64569,65519,5,875,11558,1029,54002,3,3,3,2
fist to point,13:03:39.514,29184,6706,2544,1318,962,1265,747,2003,1243,703,707,1920,3291,29061,28951,29289,29289,28937,1577,1291,3260,1151,3208,2904,1195,1103,1019,856,1322,2750,29043,29157,2147483647,64564,65521,8,881,11557,1024,54002,3,3,3,2
fist to point,13:03:39.615,29219,6692,2491,1270,944,1274,755,1986,1208,733,751,1898,3287,28955,28770,29351,29386,28788,1507,1199,3265,1089,3229,2874,1190,1111,1050,914,1335,2799,29074,29228,2147483647,64542,65531,65533,882,11555,1026,54000,3,3,3,2
fist to point,13:03:39.715,29166,6670,2557,1313,936,1291,773,1968,1195,725,725,1880,3251,29003,29030,29351,29355,28854,1551,1221,3269,1120,3256,2909,1116,1067,1019,878,1309,2737,29083,29206,2147483647,64553,65517,65534,876,11559,1029,54003,3,3,3,2
fist to point,13:03:39.816,29307,6714,2575,1331,944,1296,760,2008,1208,747,733,1920,3265,28977,29008,29223,29258,28916,1524,1226,3278,1142,3229,2878,1151,1085,1015,900,1305,2786,29021,29263,2147483647,64539,65511,65530,876,11552,1032,53997,3,3,3,2
fist to point,13:03:39.915,29122,6719,2562,1300,927,1278,760,1907,1195,711,742,1911,3256,28995,28775,29346,29351,28850,1520,1265,3278,1107,3251,2891,1208,1107,1045,931,1318,2759,29091,29162,2147483647,64553,65526,5,876,11552,1029,53996,3,3,3,2
rest in point,13:03:40.016,29219,6688,2531,1305,988,1256,751,1916,1217,733,716,1924,3278,29034,28828,29416,29452,28832,1560,1252,3282,1138,3221,2882,1168,1089,1041,892,1300,2777,29210,29188,2147483647,64546,65515,65524,877,11553,1031,53998,3,3,3,2
rest in point,13:03:40.115,29162,6728,2531,1322,953,1278,782,2025,1243,747,769,1894,3243,28981,29043,29324,29293,28832,1577,1265,3300,1146,3238,2874,1107,1098,1045,870,1349,2772,29052,29157,2147483647,64553,65507,65528,876,11551,1032,53996,3,3,3,2
rest in point,13:03:40.215,29228,6653,2544,1327,966,1230,738,1929,1243,707,733,1894,3243,29056,28929,29421,29425,29052,1573,1261,3295,1155,3229,2882,1151,1089,1015,887,1366,2746,29148,29179,2147483647,64569,65527,11,875,11555,1033,54000,3,3,3,2
rest in point,13:03:40.314,29113,6710,2553,1274,944,1283,782,1951,1208,725,773,1916,3243,28942,29052,29320,29337,28753,1520,1208,3287,1129,3194,2860,1182,1085,1050,870,1313,2781,29052,29109,2147483647,64548,65514,0,873,11562,1031,54007,3,3,3,2
rest in point,13:03:40.418,29223,6719,2522,1305,940,1278,729,1990,1217,729,725,1920,3260,29091,29263,29025,28981,29302,1568,1230,3243,1133,3203,2869,1173,1111,1041,878,1309,2746,28898,29271,2147483647,64531,65498,65533,870,11566,1032,54010,3,3,3,2
rest in point,13:03:40.515,29232,6723,2522,1278,962,1274,808,2052,1195,725,729,1946,3269,28973,28889,29373,29377,29008,1546,1252,3304,1120,3199,2891,1142,1081,1032,900,1318,2777,29003,29179,2147483647,64553,65524,65535,874,11574,1030,54019,3,3,3,2
rest in point,13:03:40.615,29162,6657,2513,1296,971,1239,747,1981,1195,720,755,1929,3273,29017,28924,29416,29434,29126,1538,1265,3273,1160,3238,2878,1182,1063,1041,883,1322,2781,29206,29170,2147483647,64529,65514,65520,876,11582,1043,54028,3,3,3,2
rest in point,13:03:40.714,29219,6697,2518,1300,971,1283,729,2008,1221,698,725,1907,3243,28990,28937,29364,29276,28867,1551,1283,3247,1133,3208,2904,1195,1094,1037,852,1349,2772,29074,29188,2147483647,64536,65519,65531,873,11586,1043,54032,3,3,3,2
rest in point,13:03:40.816,29144,6741,2513,1274,966,1287,755,1986,1212,733,742,1924,3269,29021,29148,29434,29399,29148,1494,1239,3282,1129,3177,2900,1164,1098,1010,892,1313,2746,29003,29170,2147483647,64536,65517,65527,865,11589,1066,54036,3,3,3,2
rest in point,13:03:40.915,29236,6688,2504,1296,1001,1261,764,1973,1204,738,747,1894,3247,28999,29083,29276,29276,29074,1590,1265,3278,1146,3238,2891,1129,1103,1023,856,1313,2746,29104,29210,2147483647,64552,65505,8,846,11590,1084,54037,3,3,3,2
rest in point,13:03:41.015,29166,6697,2531,1309,940,1252,742,2003,1226,720,760,1898,3282,29025,29144,29302,29399,29166,1542,1256,3247,1151,3190,2869,1195,1120,1001,834,1278,2733,29030,29179,2147483647,64556,65497,65525,835,11601,1092,54049,3,3,3,2
rest in point,13:03:41.115,29271,6679,2526,1252,953,1261,755,2008,1234,755,751,1889,3278,29017,29126,29438,29421,29157,1520,1248,3278,1142,3203,2834,1129,1067,1050,865,1300,2737,29126,29232,2147483647,64581,65506,65526,827,11618,1089,54065,3,3,3,2
rest in point,13:03:41.215,29170,6714,2535,1270,940,1265,777,1977,1217,725,799,1942,3295,28964,29069,29276,29408,29100,1538,1239,3309,1164,3221,2874,1168,1142,1023,865,1322,2768,29034,29219,2147483647,64566,65528,22,832,11621,1053,54065,3,3,3,2
rest in point,13:03:41.315,29219,6692,2540,1278,975,1274,769,1990,1190,716,711,1933,3260,29052,29118,29258,29267,29162,1542,1252,3313,1125,3186,2838,1142,1067,988,874,1313,2768,29061,29223,2147483647,64523,65509,65530,844,11609,1049,54053,3,3,3,2
rest in point,13:03:41.414,29166,6706,2566,1327,953,1300,777,1977,1234,747,751,1902,3291,28964,29074,29241,29210,29065,1564,1248,3313,1120,3221,2895,1186,1089,984,892,1291,2742,29144,29157,2147483647,64561,65505,65523,843,11587,1047,54031,3,3,3,2
rest in point,13:03:41.515,29263,6829,2627,1322,949,1234,769,1951,1217,703,733,1872,3269,29083,29109,29285,29307,29162,1498,1243,3282,1111,3234,2882,1125,1107,1015,883,1296,2759,29061,29241,2147483647,64540,65523,65525,831,11583,1037,54025,3,3,3,2
rest in point,13:03:41.616,29219,6776,2601,1309,971,1256,755,1959,1226,755,742,1894,3238,28937,29122,29245,29219,29061,1538,1252,3282,1160,3208,2869,1107,1111,1019,883,1335,2755,29030,29188,2147483647,64530,65501,65523,827,11568,1032,54009,3,3,3,2
rest in point,13:03:41.715,29359,6829,2592,1283,975,1252,720,2003,1243,689,751,1850,3238,29039,29118,29267,29333,29144,1511,1234,3309,1168,3221,2852,1151,1072,1037,878,1296,2750,29140,29364,2147483647,64561,65524,5,822,11559,1039,54000,3,3,3,2
rest in point,13:03:41.818,29232,6820,2610,1296,958,1243,769,1942,1204,716,777,1902,3247,28973,29056,29179,29192,29100,1573,1243,3309,1173,3238,2852,1177,1120,1001,905,1357,2772,28973,29170,2147483647,64551,65516,65532,827,11567,1054,54010,3,3,3,2
rest in point,13:03:41.914,29197,6785,2614,1318,971,1283,747,1981,1234,694,725,1889,3251,29074,29135,29245,29276,29188,1608,1256,3313,1142,3238,2874,1155,1129,1010,896,1344,2746,29078,29214,2147483647,64568,65516,65531,829,11554,1060,53998,3,3,3,2
rest in point,13:03:42.015,29219,6749,2605,1300,958,1274,764,1995,1226,716,764,1924,3247,29008,29118,29206,29236,29065,1577,1256,3278,1133,3221,2878,1116,1094,1019,909,1318,2768,28999,29197,2147483647,64551,65513,65535,833,11548,1061,53992,3,3,3,2
rest in point,13:03:42.115,29153,6771,2588,1291,958,1261,755,1999,1204,751,755,1902,3278,29078,29131,29293,29320,29162,1560,1243,3216,1111,3190,2900,1164,1076,993,826,1331,2759,29017,29148,2147483647,64545,65510,0,833,11542,1063,53986,3,3,3,2
rest in point,13:03:42.215,29276,6771,2601,1318,949,1252,742,2003,1186,711,742,1880,3247,28981,29069,29241,29223,29065,1546,1265,3309,1116,3194,2869,1186,1089,1019,878,1287,2737,29162,29289,2147483647,64556,65513,13,831,11538,1073,53983,3,3,3,2
rest in point,13:03:42.325,29254,6763,2583,1300,944,1256,769,2021,1217,747,738,1885,3260,29241,29280,29276,29333,29298,1555,1265,3291,1120,3247,2860,1125,1085,1023,874,1327,2777,28727,29298,2147483647,64533,65502,23,842,11527,1085,53974,3,3,3,2
rest in point,13:03:42.422,29250,6829,2645,1300,966,1287,733,2008,1217,720,751,1885,3221,29166,29236,28894,29039,29245,1520,1199,3282,1116,3225,2913,1138,1081,1023,878,1313,2768,28788,29228,2147483647,64556,65515,65530,848,11510,1096,53958,3,3,3,2
rest in point,13:03:42.514,29236,6771,2641,1274,984,1270,751,1973,1226,725,742,1933,3234,28973,29109,29206,29258,29091,1564,1204,3309,1125,3216,2917,1155,1094,1010,865,1313,2764,29003,29223,2147483647,64547,65514,4,849,11530,1106,53980,3,3,3,2
rest in point,13:03:42.615,29271,6798,2636,1296,958,1265,777,1968,1234,720,738,1880,3225,29021,29118,29228,29210,29140,1494,1256,3357,1120,3216,2887,1146,1107,1001,878,1313,2746,29074,29228,2147483647,64541,65513,16,839,11531,1123,53981,3,3,3,2
rest in point,13:03:42.714,29280,6815,2649,1287,953,1274,782,1999,1186,707,773,1898,3194,29003,29126,28933,29087,29096,1560,1239,3295,1133,3229,2865,1173,1116,1032,905,1309,2777,29096,29315,2147483647,64549,65502,16,821,11533,1128,53983,3,3,3,2
rest in point,13:03:42.816,29302,6829,2680,1322,993,1274,782,1986,1208,738,733,1911,3251,29069,29166,28981,28902,29188,1555,1243,3313,1151,3208,2860,1133,1072,993,909,1305,2742,29056,29250,2147483647,64545,65498,14,817,11526,1133,53976,3,3,3,2
rest in point,13:03:42.914,29280,6824,2627,1305,984,1287,782,1942,1239,694,720,1898,3243,28990,29087,28968,28894,29074,1529,1226,3309,1146,3208,2882,1173,1125,1015,839,1313,2737,29179,29267,2147483647,64555,65507,9,817,11513,1135,53963,3,3,3,2
rest in point,13:03:43.014,29280,6820,2645,1291,988,1274,769,2012,1204,733,764,1850,3225,29061,29135,28907,29109,29162,1511,1221,3256,1129,3199,2874,1177,1085,971,843,1331,2768,29122,29271,2147483647,64548,65484,3,814,11521,1148,53973,3,3,3,2
rest in point,13:03:43.114,29188,6807,2654,1274,988,1278,773,1986,1217,733,725,1876,3164,28999,29074,28894,28836,29091,1542,1177,3282,1089,3225,2882,1155,1067,1037,878,1322,2803,29025,29210,2147483647,64573,65511,2,797,11514,1144,53963,3,3,3,2
rest in point,13:03:43.214,29333,6767,2627,1291,914,1270,755,2030,1190,711,711,1902,3247,29017,29056,28916,29056,29126,1533,1248,3291,1107,3216,2869,1160,1107,1041,883,1344,2768,29179,29307,2147483647,64555,65505,5,786,11521,1146,53970,3,3,3,2
rest in point,13:03:43.319,29368,6833,2605,1243,966,1248,751,1977,1248,725,733,1889,3208,29012,28889,29113,28907,28920,1502,1234,3309,1129,3234,2852,1177,1094,993,856,1305,2750,29012,29293,2147483647,64548,65498,1,794,11525,1138,53974,3,3,3,2
rest in point,13:03:43.422,29258,6793,2597,1252,979,1252,742,2003,1199,738,747,1872,3287,29241,29241,29021,29003,29232,1524,1243,3295,1125,3282,2887,1138,1094,1010,856,1322,2764,28876,29271,2147483647,64546,65501,4,791,11523,1131,53971,3,3,3,2
rest in point,13:03:43.514,29293,6820,2619,1331,949,1261,751,1981,1199,729,742,1885,3238,28999,28999,28924,29012,28964,1520,1217,3278,1160,3229,2878,1125,1103,1032,843,1256,2759,29052,29267,2147483647,64557,65508,65532,793,11513,1132,53961,3,3,3,2
rest in point,13:03:43.624,29324,6771,2601,1305,953,1239,760,1986,1256,729,725,1885,3212,29337,29192,29298,29351,29219,1551,1239,3287,1129,3203,2904,1177,1129,988,839,1313,2689,28691,29263,2147483647,64562,65506,18,790,11507,1127,53954,3,3,3,2
rest in point,13:03:43.714,29329,6780,2588,1243,979,1283,782,1990,1248,738,720,1858,3199,28964,28977,28836,28810,28981,1551,1234,3309,1129,3243,2909,1164,1072,1028,874,1291,2720,29210,29302,2147483647,64549,65503,21,787,11507,1120,53954,3,3,3,2
rest in point,13:03:43.816,29206,6785,2619,1278,944,1274,773,2003,1208,729,760,1867,3199,28964,28955,28854,28836,28990,1520,1212,3309,1125,3260,2878,1103,1103,1019,887,1331,2746,29074,29184,2147483647,64556,65500,22,780,11498,1112,53943,3,3,3,2
rest in point,13:03:43.914,29197,6793,2575,1291,944,1252,769,2021,1199,716,733,1880,3212,29003,29056,28946,28951,28999,1520,1212,3300,1160,3273,2900,1125,1063,1032,909,1331,2733,29140,29228,2147483647,64552,65488,24,779,11498,1113,53943,3,3,3,2
rest in point,13:03:44.014,29223,6758,2583,1283,953,1283,755,1995,1195,720,729,1872,3216,28951,28951,29030,28986,28942,1551,1252,3265,1120,3265,2944,1164,1089,1041,883,1340,2750,29030,29170,2147483647,64556,65509,21,772,11495,1111,53940,3,3,3,2
rest in point,13:03:44.114,29351,6780,2579,1265,979,1287,751,1946,1221,742,733,1867,3199,29043,29052,28933,28933,29078,1546,1226,3309,1120,3221,2865,1168,1094,1045,839,1309,2729,29223,29359,2147483647,64549,65498,0,774,11493,1109,53938,3,3,3,2
rest in point,13:03:44.214,29140,6846,2627,1296,1001,1283,733,1990,1226,742,764,1885,3164,28924,28937,29034,28867,28968,1538,1208,3269,1125,3229,2895,1190,1098,1023,874,1335,2772,29078,29179,2147483647,64560,65500,9,768,11486,1105,53930,3,3,3,2
rest in point,13:03:44.314,29263,6824,2605,1300,958,1270,777,1955,1195,725,725,1885,3212,29034,29012,28920,28955,29017,1520,1221,3295,1129,3234,2869,1160,1089,1037,892,1291,2746,29056,29280,2147483647,64555,65508,12,767,11486,1101,53930,3,3,3,2
rest in point,13:03:44.414,29298,6714,2575,1283,944,1287,729,1959,1221,729,760,1898,3212,28964,28968,28823,28845,29021,1538,1243,3260,1168,3238,2887,1146,1067,1015,922,1335,2768,29074,29276,2147483647,64542,65505,13,767,11478,1103,53922,3,3,3,2
rest in point,13:03:44.514,29315,6802,2583,1291,979,1270,808,1990,1256,764,755,1898,3203,29039,29052,29083,28832,29083,1529,1234,3273,1146,3238,2922,1177,1072,1019,900,1318,2768,29170,29346,2147483647,64552,65504,7,767,11469,1103,53914,3,3,3,2
rest in point,13:03:44.620,29188,6807,2557,1274,971,1274,751,2039,1234,711,716,1880,3247,28937,28959,28788,28836,28977,1516,1261,3265,1142,3278,2922,1182,1081,1059,896,1349,2794,29074,29210,2147483647,64561,65503,6,768,11457,1103,53901,3,3,3,2
rest in point,13:03:44.714,29219,6692,2570,1322,962,1274,747,1977,1195,747,725,1898,3225,29021,29012,29100,28951,29056,1551,1252,3273,1129,3208,2917,1151,1085,1054,900,1340,2733,28999,29184,2147483647,64576,65505,14,764,11458,1108,53902,3,3,3,2
rest in point,13:03:44.816,29315,6723,2553,1327,1006,1270,725,1995,1195,729,751,1924,3225,28955,28955,28841,29034,29008,1564,1265,3287,1111,3186,2891,1186,1081,1023,865,1349,2702,29109,29315,2147483647,64545,65505,16,767,11464,1102,53908,3,3,3,2
rest in point,13:03:44.922,29390,6741,2597,1287,962,1243,769,1951,1234,725,738,1898,3172,29298,29170,29039,29061,29140,1538,1256,3273,1155,3212,2891,1129,1045,984,852,1327,2764,28832,29355,2147483647,64556,65502,23,767,11453,1101,53897,3,3,3,2
point to fist,13:03:45.014,29390,6710,2562,1291,988,1239,777,1981,1186,716,733,1841,3186,28955,28995,28959,28867,28951,1516,1221,3295,1160,3190,2922,1182,1045,1006,870,1349,2742,29162,29320,2147483647,64538,65495,12,767,11453,1101,53897,3,3,3,2
point to fist,13:03:45.115,29364,6688,2562,1296,971,1291,764,1968,1208,703,760,1841,3190,28999,28999,28907,29065,29017,1529,1226,3256,1138,3221,2874,1142,1089,1010,892,1327,2742,29131,29320,2147483647,64570,65505,22,768,11441,1100,53885,3,3,3,2
point to fist,13:03:45.214,29355,6741,2575,1291,988,1261,764,1990,1173,725,760,1876,3172,29043,29017,28933,28924,29034,1560,1243,3295,1089,3190,2917,1164,1094,1019,865,1309,2772,29214,29355,2147483647,64551,65502,19,770,11442,1102,53887,3,3,3,2
point to fist,13:03:45.314,29223,6736,2583,1309,988,1291,742,1990,1252,720,747,1885,3221,28973,29021,28951,29021,28999,1560,1217,3304,1129,3150,2887,1160,1089,1006,861,1318,2737,29162,29201,2147483647,64544,65496,13,772,11437,1100,53881,3,3,3,2
point to fist,13:03:45.414,29219,6741,2562,1274,984,1278,733,1999,1195,720,738,1872,3234,29083,29003,28995,29017,29012,1498,1234,3282,1125,3256,2834,1164,1089,1041,874,1305,2755,29074,29153,2147483647,64543,65487,23,776,11437,1102,53882,3,3,3,2
point to fist,13:03:45.514,29083,6732,2562,1300,966,1270,782,1968,1195,729,729,1889,3208,28990,28990,28845,28850,29034,1516,1221,3278,1133,3216,2909,1146,1107,1054,900,1371,2733,28977,29061,2147483647,64541,65511,21,780,11431,1104,53876,3,3,3,2
point to fist,13:03:45.614,29236,6776,2597,1300,984,1265,755,2012,1217,733,716,1898,3208,29043,29021,29140,28990,29003,1568,1243,3326,1129,3229,2891,1199,1076,1006,878,1300,2742,29267,29280,2147483647,64550,65514,24,776,11437,1108,53883,3,3,3,2
point to fist,13:03:45.719,29166,6732,2583,1287,979,1274,747,1999,1239,716,764,1867,3212,28937,29043,28880,29003,28968,1551,1265,3287,1146,3181,2931,1173,1103,1032,870,1300,2750,29170,29166,2147483647,64552,65494,20,770,11442,1114,53887,3,3,3,2
point to fist,13:03:45.816,29104,6745,2548,1287,927,1322,773,2003,1204,707,742,1902,3238,29025,29025,28832,28880,29043,1546,1239,3287,1146,3216,2869,1164,1116,1015,861,1305,2733,29069,29096,2147483647,64547,65494,8,778,11430,1120,53877,3,3,3,2
point to fist,13:03:45.914,29109,6754,2513,1278,953,1283,733,1977,1217,733,707,1902,3194,29030,29039,28951,29056,29017,1542,1239,3300,1142,3221,2900,1177,1072,988,848,1291,2737,29170,29140,2147483647,64579,65508,20,781,11427,1123,53875,3,3,3,2
point to fist,13:03:46.014,29113,6754,2531,1270,988,1265,773,1977,1190,720,764,1920,3194,28968,29030,28841,28898,29012,1542,1243,3300,1160,3199,2830,1186,1107,1041,874,1309,2759,29206,29197,2147483647,64551,65507,20,778,11425,1114,53872,3,3,3,2
point to fist,13:03:46.114,29214,6736,2553,1313,936,1261,760,1959,1208,729,755,1876,3164,28951,28955,28977,28836,28964,1568,1221,3300,1129,3203,2917,1177,1089,997,861,1340,2742,29083,29188,2147483647,64570,65500,25,773,11423,1108,53869,3,3,3,2
point to fist,13:03:46.214,29148,6745,2579,1239,944,1278,716,2034,1217,711,711,1845,3199,29175,29008,28920,28968,29003,1560,1234,3265,1138,3212,2878,1160,1085,1037,870,1340,2715,29078,29144,2147483647,64567,65506,30,769,11416,1107,53862,3,3,3,2
point to fist,13:03:46.314,29245,6780,2562,1318,971,1270,764,2030,1212,769,707,1924,3229,29083,28942,28792,28814,28920,1524,1239,3291,1142,3203,2922,1164,1067,1023,839,1305,2737,29153,29210,2147483647,64568,65507,34,772,11409,1109,53856,3,3,3,2
point to fist,13:03:46.414,29118,6793,2601,1300,1001,1265,764,2021,1186,689,720,1902,3203,29056,28973,28959,29043,29030,1555,1230,3309,1111,3186,2878,1146,1076,1059,892,1318,2764,29091,29166,2147483647,64553,65496,49,774,11415,1112,53861,3,3,3,2
point to fist,13:03:46.515,29228,6763,2548,1274,975,1278,751,2030,1177,751,751,1880,3212,29039,29025,28836,28832,29039,1555,1212,3265,1168,3243,2913,1168,1089,1015,874,1322,2724,29201,29197,2147483647,64557,65491,31,772,11411,1110,53857,3,3,3,2
point to fist,13:03:46.624,29104,6723,2557,1278,975,1291,742,2003,1243,720,725,1880,3221,29373,29223,29210,29210,29236,1516,1252,3313,1107,3190,2913,1155,1098,984,874,1309,2768,28946,29069,2147483647,64554,65504,15,770,11404,1105,53850,3,3,3,2
point to fist,13:03:46.719,29104,6780,2553,1287,979,1270,773,2017,1190,707,689,1889,3155,29008,29047,28876,29056,28981,1529,1243,3273,1129,3168,2895,1146,1125,1015,878,1313,2724,29104,29118,2147483647,64547,65511,13,770,11403,1104,53849,3,3,3,2
point to fist,13:03:46.815,29192,6714,2562,1309,962,1256,777,2003,1243,738,747,1880,3212,29206,28959,28797,28902,28968,1560,1234,3247,1116,3177,2904,1160,1129,1037,861,1283,2746,29153,29153,2147483647,64533,65505,9,776,11397,1102,53843,3,3,3,2
point to fist,13:03:46.914,29223,6785,2592,1309,953,1309,738,2039,1186,733,725,1894,3212,29140,28995,29144,29170,28986,1560,1226,3291,1168,3208,2869,1155,1116,1010,839,1309,2742,29201,29188,2147483647,64558,65509,19,772,11390,1099,53836,3,3,3,2
point to fist,13:03:47.014,29153,6741,2544,1274,1010,1283,751,2012,1230,725,716,1867,3203,29069,28933,29100,29100,28968,1546,1261,3256,1138,3212,2882,1177,1111,1023,874,1291,2680,29003,29096,2147483647,64561,65506,21,771,11412,1101,53857,3,3,3,2
point to fist,13:03:47.115,29109,6767,2579,1322,993,1300,747,2039,1252,725,729,1876,3186,29219,28867,29170,29122,28823,1542,1243,3265,1164,3168,2891,1173,1089,1015,848,1300,2742,29052,29118,2147483647,64546,65495,40,771,11415,1103,53859,3,3,3,2
point to fist,13:03:47.213,29140,6780,2592,1270,949,1274,751,2043,1204,711,733,1876,3234,29135,29034,29078,29083,28986,1529,1265,3273,1142,3203,2891,1116,1120,1010,856,1313,2729,28955,29109,2147483647,64545,65503,37,774,11407,1105,53853,3,3,3,2
point to fist,13:03:47.314,29179,6723,2583,1278,953,1296,769,2034,1248,729,751,1898,3203,29280,29012,29148,29140,29091,1542,1226,3260,1111,3164,2878,1164,1045,997,870,1309,2746,29113,29210,2147483647,64559,65507,23,773,11406,1107,53852,3,3,3,2
point to fist,13:03:47.414,29228,6807,2566,1313,975,1270,804,1986,1230,729,729,1867,3212,29175,28933,29096,29100,28937,1524,1234,3282,1120,3159,2878,1168,1067,1081,896,1335,2750,29047,29162,2147483647,64562,65506,18,773,11403,1109,53849,3,3,3,2
point to fist,13:03:47.514,29039,6741,2548,1309,988,1248,760,2043,1234,703,711,1889,3243,29126,29025,29126,29153,29021,1573,1265,3273,1142,3128,2874,1155,1059,988,896,1327,2729,28955,29030,2147483647,64571,65506,16,776,11403,1114,53850,3,3,3,2
point to fist,13:03:47.615,29175,6776,2583,1278,962,1261,747,2056,1230,751,725,1907,3234,29166,28951,29096,29061,29034,1568,1243,3265,1182,3137,2856,1125,1054,1041,870,1322,2755,29061,29175,2147483647,64563,65492,48,777,11409,1117,53856,3,3,3,2
point to fist,13:03:47.715,29069,6745,2566,1283,975,1283,760,2025,1217,694,720,1858,3251,29087,29003,29074,29144,28981,1538,1265,3282,1120,3128,2856,1125,1116,1028,878,1291,2768,29074,29047,2147483647,64556,65503,39,775,11411,1120,53859,3,3,3,2
point to fist,13:03:47.815,29069,6771,2592,1313,962,1234,725,2017,1190,738,725,1885,3221,29197,28924,29052,29074,28995,1511,1243,3282,1129,3111,2825,1164,1085,1019,848,1318,2786,29074,29096,2147483647,64547,65496,23,776,11425,1126,53873,3,3,3,2
point to fist,13:03:47.915,29162,6736,2597,1287,1015,1300,760,2034,1217,698,747,1876,3278,29126,28929,29061,29034,29052,1551,1226,3304,1151,3133,2935,1125,1076,1023,874,1283,2777,28951,29153,2147483647,64539,65499,19,779,11412,1130,53861,3,3,3,2
point to fist,13:03:48.014,29140,6719,2544,1252,953,1278,698,2021,1230,755,751,1885,3260,29232,29025,29113,29162,28959,1546,1256,3251,1155,3150,2887,1164,1067,1037,900,1322,2755,29069,29087,2147483647,64564,65502,11,785,11411,1134,53860,3,3,3,2
point to fist,13:03:48.115,29144,6750,2588,1309,966,1274,755,2012,1217,729,716,1858,3225,29148,28968,29061,29126,28942,1533,1234,3265,1120,3106,2869,1120,1111,1023,892,1313,2759,29140,29192,2147483647,64553,65503,20,782,11409,1130,53858,3,3,3,2
point to fist,13:03:48.214,29188,6754,2518,1265,962,1287,733,2052,1234,733,729,1872,3225,29061,29056,29157,29113,28999,1551,1256,3247,1151,3150,2887,1182,1089,1015,887,1278,2764,29087,29201,2147483647,64536,65498,15,776,11407,1125,53855,3,3,3,2
point to fist,13:03:48.314,29008,6736,2588,1283,971,1261,764,2030,1217,725,760,1898,3256,29096,28973,29074,29083,28968,1555,1252,3247,1133,3155,2895,1173,1085,1054,852,1300,2742,29043,29003,2147483647,64558,65499,26,778,11400,1130,53848,3,3,3,2
point to fist,13:03:48.415,29166,6736,2566,1309,1015,1278,751,2017,1204,742,738,1872,3287,29280,29021,29118,29131,29039,1533,1226,3260,1133,3164,2838,1182,1067,1015,856,1300,2746,29118,29069,2147483647,64549,65498,26,778,11396,1133,53845,3,3,3,2
point to fist,13:03:48.514,29166,6732,2540,1283,966,1265,733,1986,1208,720,747,1911,3273,29206,28951,29122,29162,28942,1538,1239,3265,1120,3124,2913,1146,1063,1015,861,1300,2750,29017,29100,2147483647,64546,65505,28,782,11396,1128,53844,3,3,3,2
point to fist,13:03:48.614,29188,6723,2544,1287,997,1270,764,2030,1212,755,742,1872,3251,29236,29030,29166,29153,29039,1546,1226,3273,1107,3159,2895,1160,1085,1010,865,1270,2715,29096,29206,2147483647,64548,65497,28,777,11396,1128,53843,3,3,3,2
point to fist,13:03:48.722,28850,6771,2518,1274,940,1265,769,2003,1208,720,694,1916,3225,29390,29250,29039,29223,29250,1502,1204,3243,1120,3120,2882,1146,1103,1006,870,1305,2711,28911,28850,2147483647,64564,65503,37,769,11386,1126,53834,3,3,3,2
