Scenario,Time,P0,P1,P2,P3,P4,P5,P6,P7,P8,P9,P10,P11,P12,P13,P14,P15,P16,P17,P18,P19,P20,P21,P22,P23,P24,P25,P26,P27,P28,P29,P30,P31,ECG,AX,AY,AZ,QW,QX,QY,QZ,CS,CA,CG,CM
paper,17:17:00.105,29096,7088,2953,1696,966,1362,808,1551,1577,874,927,2421,3537,29034,29140,29184,29135,29157,1437,1401,2482,1463,1955,2720,1173,1177,988,914,1511,1678,29113,29109,2147483647,64725,134,537,11849,5528,5699,57473,0,3,3,2
paper,17:17:00.195,29179,7092,2939,1678,984,1344,764,1551,1604,874,905,2460,3524,29170,29219,29175,29188,29122,1480,1353,2496,1445,1946,2667,1182,1116,979,914,1533,1661,29021,29184,2147483647,64722,132,529,11849,5524,5699,57471,0,3,3,2
paper,17:17:00.294,29162,7119,2957,1674,979,1388,821,1573,1564,905,940,2443,3541,29074,29091,28973,28995,29144,1450,1384,2465,1467,1968,2685,1168,1168,944,918,1555,1639,29074,29135,2147483647,64730,132,533,11846,5520,5704,57467,0,3,3,2
paper,17:17:00.394,29126,7101,2939,1700,971,1366,812,1577,1546,856,896,2403,3528,29144,29148,29087,29096,29148,1437,1379,2465,1441,1973,2671,1142,1138,953,896,1546,1674,29126,29201,2147483647,64725,131,532,11839,5517,5717,57464,0,3,3,2
paper,17:17:00.495,29162,7114,2983,1678,975,1371,791,1551,1555,852,944,2408,3533,29140,29192,29056,29100,29175,1480,1344,2531,1458,1977,2623,1160,1164,944,958,1564,1652,29030,29126,2147483647,64719,131,523,11836,5515,5722,57462,0,3,3,2
paper,17:17:00.595,29074,7092,2944,1674,979,1375,791,1555,1538,861,936,2403,3533,29118,29166,29113,29122,29153,1485,1362,2460,1489,1951,2667,1177,1098,940,949,1494,1652,29100,29135,2147483647,64721,130,526,11826,5513,5735,57455,0,3,3,2
paper,17:17:00.694,29113,7097,2900,1705,1001,1357,786,1560,1560,852,927,2408,3528,29061,29104,29047,29056,29131,1445,1393,2487,1441,1973,2680,1173,1195,931,940,1498,1683,29100,29078,2147483647,64724,133,528,11815,5519,5734,57442,0,3,3,2
paper,17:17:00.795,29078,7088,2966,1687,975,1362,830,1608,1586,878,971,2395,3563,29104,29144,29017,28999,29140,1454,1375,2452,1441,1977,2597,1182,1190,927,905,1551,1652,29122,29078,2147483647,64714,129,526,11805,5536,5728,57435,0,3,3,2
paper,17:17:00.895,29157,7110,2909,1669,958,1401,812,1555,1560,830,940,2399,3528,29104,29135,28981,29034,29122,1441,1366,2478,1458,1968,2649,1195,1186,993,914,1551,1709,29166,29153,2147483647,64714,121,527,11790,5554,5737,57432,0,3,3,2
paper,17:17:01.005,29056,7066,2944,1700,944,1340,799,1595,1586,887,918,2447,3520,29113,29078,29118,29157,29047,1450,1379,2465,1463,1959,2632,1155,1160,966,922,1546,1669,29219,29175,2147483647,64715,124,514,11770,5563,5748,57416,0,3,3,2
paper,17:17:01.094,29091,7053,2939,1735,971,1375,808,1564,1582,856,914,2408,3524,29104,29184,29206,29162,29144,1472,1379,2491,1467,1977,2667,1182,1160,966,909,1538,1678,29126,29122,2147483647,64720,128,524,11763,5565,5761,57417,0,3,3,2
paper,17:17:01.195,29153,7070,2917,1652,962,1371,782,1568,1560,887,922,2412,3511,29096,29157,29030,29003,29131,1415,1393,2447,1467,1924,2658,1186,1133,953,918,1516,1700,29039,29113,2147483647,64720,122,521,11769,5556,5774,57430,0,3,3,2
paper,17:17:01.295,29135,7048,2878,1678,1001,1388,799,1568,1560,896,918,2403,3533,29065,29118,29069,29078,29122,1437,1322,2478,1454,2003,2649,1173,1182,962,922,1542,1687,29104,29162,2147483647,64729,121,522,11778,5533,5787,57436,0,3,3,2
paper,17:17:01.395,29162,7070,2878,1700,966,1357,799,1604,1555,883,918,2329,3550,29113,29201,29144,29131,29184,1472,1357,2434,1472,1951,2663,1164,1168,958,918,1551,1687,28863,29175,2147483647,64719,133,520,11793,5503,5795,57442,0,3,3,2
paper,17:17:01.494,29074,7062,2838,1700,971,1371,821,1568,1538,852,900,2434,3511,29100,29148,29056,29074,29157,1463,1335,2487,1432,1955,2689,1182,1142,975,940,1568,1687,28995,29083,2147483647,64720,128,518,11805,5479,5799,57447,0,3,3,2
paper,17:17:01.595,29083,7066,2917,1691,1006,1349,786,1551,1599,861,870,2434,3511,29087,29109,29135,29166,29126,1445,1366,2491,1454,1924,2645,1155,1164,949,927,1511,1647,29135,29131,2147483647,64724,124,526,11807,5475,5797,57447,0,3,3,2
paper,17:17:01.695,29157,7070,2887,1709,1006,1388,786,1590,1568,887,922,2395,3520,29122,29144,29096,29126,29140,1432,1357,2474,1454,1916,2649,1155,1182,944,918,1529,1661,29104,29157,2147483647,64716,119,528,11805,5467,5792,57434,0,3,3,2
paper,17:17:01.794,29153,7088,2944,1687,971,1393,791,1608,1590,865,949,2364,3520,29104,29056,29104,29118,29100,1454,1362,2452,1454,1951,2663,1138,1120,984,892,1494,1674,29188,29126,2147483647,64719,116,533,11798,5454,5791,57414,0,3,3,2
paper,17:17:01.895,29184,7070,2895,1705,962,1388,804,1568,1560,856,905,2399,3462,29118,29069,29122,29153,29052,1467,1357,2504,1428,1924,2654,1186,1138,927,931,1533,1683,29083,29144,2147483647,64718,115,529,11796,5446,5791,57407,0,3,3,2
paper,17:17:02.015,29109,7062,2869,1669,984,1366,795,1604,1582,856,896,2416,3541,29122,29030,29083,29148,29104,1476,1366,2518,1467,1973,2663,1160,1168,949,931,1533,1656,29144,29140,2147483647,64721,112,523,11790,5438,5804,57401,0,3,3,2
paper,17:17:02.095,29122,7062,2909,1709,958,1375,795,1582,1577,852,949,2386,3577,29166,29197,28977,28999,29162,1419,1379,2487,1463,1894,2658,1164,1164,944,936,1573,1652,29078,29091,2147483647,64723,110,523,11786,5429,5807,57392,0,3,3,2
paper,17:17:02.194,29148,7057,2904,1678,971,1410,834,1560,1546,856,927,2434,3498,29140,29065,29104,29135,29052,1441,1393,2456,1441,1946,2623,1190,1164,953,931,1520,1665,29157,29118,2147483647,64722,113,527,11787,5426,5806,57390,0,3,3,2
paper,17:17:02.295,29153,7044,2895,1687,975,1371,795,1577,1555,830,927,2386,3524,29140,29122,29135,29184,29148,1489,1344,2386,1428,1955,2627,1133,1182,988,927,1555,1709,29175,29179,2147483647,64720,115,529,11788,5421,5805,57387,0,3,3,2
paper,17:17:02.395,29179,7053,2926,1705,971,1366,791,1538,1551,843,892,2403,3502,29078,29069,29113,29135,29096,1437,1327,2443,1463,1937,2663,1160,1129,975,887,1542,1674,29100,29179,2147483647,64724,108,527,11787,5419,5807,57386,0,3,3,2
paper,17:17:02.495,29144,7062,2878,1678,975,1362,751,1568,1529,878,958,2460,3502,29140,29065,29140,29140,29083,1485,1362,2474,1415,1933,2632,1146,1173,949,918,1564,1696,29162,29135,2147483647,64719,115,530,11786,5409,5805,57377,0,3,3,2
paper,17:17:02.594,28894,7053,2931,1709,958,1349,830,1555,1551,861,949,2390,3515,29184,29192,29122,29162,29192,1458,1393,2438,1450,1951,2654,1133,1125,936,931,1573,1652,28964,28911,2147483647,64718,110,523,11791,5400,5796,57372,0,3,3,2
paper,17:17:02.695,29197,7048,2904,1683,971,1397,830,1608,1573,848,927,2438,3541,29096,29100,29100,29126,29135,1458,1349,2425,1450,1964,2654,1177,1146,940,918,1564,1669,29188,29250,2147483647,64722,105,521,11791,5398,5796,57371,0,3,3,2
paper,17:17:02.815,29153,7083,2926,1691,971,1375,804,1577,1577,874,958,2430,3493,29043,29100,29135,29083,29052,1445,1379,2421,1437,1946,2623,1182,1160,940,922,1546,1634,29201,29118,2147483647,64722,111,533,11792,5399,5798,57375,0,3,3,2
paper,17:17:02.895,29153,7035,2904,1691,958,1357,773,1560,1586,856,905,2403,3502,29074,29047,29162,29126,29162,1432,1366,2443,1489,1955,2627,1133,1160,953,887,1538,1639,29192,29126,2147483647,64729,107,545,11799,5384,5789,57368,0,3,3,2
paper,17:17:02.995,29100,7040,2913,1696,971,1384,799,1590,1502,843,966,2434,3520,29091,29083,29083,29096,29109,1441,1362,2443,1441,1937,2605,1173,1142,944,896,1542,1643,29078,29087,2147483647,64732,107,538,11810,5368,5779,57366,0,3,3,2
paper,17:17:03.018,29104,7048,2891,1700,958,1362,817,1604,1573,856,927,2381,3489,29179,29091,29144,29113,29087,1432,1344,2460,1463,1924,2632,1186,1173,918,914,1529,1634,29100,29113,2147483647,64737,103,533,11826,5334,5768,57359,0,3,3,2
paper,17:17:03.195,29113,7044,2909,1700,979,1371,773,1546,1542,856,949,2403,3502,29109,29122,29061,29118,29047,1454,1344,2438,1458,1986,2605,1146,1142,966,918,1555,1674,29113,29109,2147483647,64726,112,538,11831,5314,5752,57341,0,3,3,2
paper,17:17:03.219,29065,7088,2904,1687,993,1335,821,1555,1582,887,918,2430,3515,29144,29069,29153,29109,29096,1432,1406,2447,1415,1933,2588,1164,1164,940,953,1546,1674,29074,29065,2147483647,64721,114,549,11850,5321,5735,57362,0,3,3,2
paper,17:17:03.395,29148,7062,2882,1678,953,1375,799,1599,1586,909,918,2412,3524,29148,29078,29140,29135,29109,1423,1331,2408,1441,1968,2562,1182,1186,988,878,1538,1665,29201,29135,2147483647,64721,121,535,11868,5342,5745,57409,0,3,3,2
paper,17:17:03.495,29113,7053,2895,1674,975,1357,812,1555,1546,865,949,2443,3520,29104,29078,29065,29140,29074,1463,1384,2438,1458,1968,2579,1155,1164,966,914,1520,1683,29126,29104,2147483647,64723,121,539,11869,5349,5767,57432,0,3,3,2
paper,17:17:03.595,29157,7066,2953,1691,940,1401,791,1604,1595,839,918,2430,3559,29118,29126,29140,29118,29069,1441,1349,2504,1410,1942,2575,1173,1168,975,931,1542,1661,29166,29122,2147483647,64733,111,544,11865,5348,5771,57427,0,3,3,2
paper,17:17:03.704,29157,7070,2874,1709,984,1384,821,1586,1560,887,936,2416,3528,29113,29074,29109,29087,29047,1472,1371,2456,1458,1911,2562,1142,1160,984,958,1516,1709,29170,29157,2147483647,64724,111,536,11863,5348,5766,57421,0,3,3,2
paper,17:17:03.795,29135,7088,2904,1731,979,1384,834,1582,1533,865,940,2416,3533,29148,29140,29188,29192,29118,1489,1357,2430,1458,1920,2579,1186,1168,931,944,1546,1652,29065,29131,2147483647,64723,107,537,11861,5345,5772,57421,0,3,3,2
paper,17:17:03.895,29096,7075,2909,1731,979,1415,795,1564,1595,865,909,2381,3537,29184,29069,29078,29140,29047,1432,1371,2460,1450,1924,2619,1173,1160,958,909,1568,1705,29113,29078,2147483647,64730,124,528,11859,5348,5785,57428,0,3,3,2
paper,17:17:03.995,29118,7066,2926,1691,971,1375,782,1599,1577,874,927,2443,3515,29210,29078,29074,29140,29096,1489,1384,2430,1454,1933,2588,1208,1146,979,918,1533,1669,29104,29100,2147483647,64720,94,514,11857,5373,5791,57446,0,3,3,2
paper,17:17:04.020,29043,7044,2935,1700,975,1397,760,1542,1595,883,940,2434,3537,29153,29078,29135,29091,29074,1428,1357,2430,1441,1924,2592,1199,1168,966,900,1568,1674,29144,29118,2147483647,64723,94,519,11864,5333,5789,57429,0,3,3,2
paper,17:17:04.215,29162,7062,2834,1678,962,1393,786,1577,1599,878,962,2443,3524,29175,29144,29135,29140,29135,1480,1379,2421,1476,1955,2570,1195,1160,979,914,1538,1639,29109,29157,2147483647,64751,106,575,11861,5272,5721,57337,0,3,3,2
paper,17:17:04.295,29135,7070,2869,1709,975,1388,808,1586,1564,856,940,2452,3533,29091,28973,29175,29210,28973,1476,1357,2469,1454,1964,2610,1168,1186,966,918,1564,1669,29034,29118,2147483647,64728,119,558,11907,5238,5656,57337,0,3,3,2
paper,17:17:04.322,29083,7066,2878,1687,966,1401,791,1551,1573,861,962,2430,3533,29184,29118,29122,29074,29091,1463,1371,2491,1472,1942,2636,1173,1160,949,936,1502,1647,29153,29109,2147483647,64761,136,582,11931,5224,5628,57343,0,3,3,2
paper,17:17:04.495,29074,7031,2882,1665,962,1401,777,1546,1538,887,949,2430,3572,29109,29047,29074,29091,29065,1472,1410,2474,1450,1977,2597,1164,1155,922,900,1577,1656,29091,29126,2147483647,64735,104,569,11918,5176,5556,57245,0,3,3,2
paper,17:17:04.595,29091,7048,2895,1718,958,1379,821,1560,1564,870,922,2443,3524,29030,29096,29061,29083,29091,1445,1340,2430,1445,1942,2632,1125,1151,966,918,1560,1700,29109,29148,2147483647,64728,127,605,11917,5217,5535,57255,0,3,3,2
paper,17:17:04.695,29113,7083,2887,1678,971,1357,786,1573,1529,874,936,2421,3498,29184,28999,29083,29061,29052,1463,1406,2443,1450,1942,2614,1125,1173,944,931,1546,1617,29069,29087,2147483647,64768,118,580,11909,5259,5575,57297,0,3,3,2
paper,17:17:04.794,29113,7079,2865,1665,975,1366,786,1555,1568,896,936,2456,3550,29188,29131,29131,29140,29113,1423,1318,2434,1445,1964,2610,1142,1199,1006,922,1542,1700,29153,29083,2147483647,64716,114,517,11900,5291,5670,57370,0,3,3,2
paper,17:17:04.823,29074,7057,2926,1705,993,1366,795,1582,1573,870,944,2408,3541,29104,29052,29113,29157,29069,1423,1335,2474,1458,1968,2610,1168,1129,940,905,1582,1674,29148,29109,2147483647,64766,139,565,11857,5361,5848,57479,0,3,3,2
paper,17:17:04.995,29166,7083,2909,1700,962,1375,795,1538,1538,870,958,2390,3541,29087,29135,29245,29285,29170,1458,1379,2447,1467,1990,2641,1164,1160,984,896,1546,1634,29179,29197,2147483647,64721,125,544,11795,5268,5893,57361,0,3,3,2
go to fist,17:17:05.095,29140,7070,2900,1709,971,1384,817,1590,1555,848,936,2399,3506,29170,29069,29100,29091,29043,1428,1353,2456,1419,1907,2636,1204,1138,953,949,1538,1643,29065,29118,2147483647,64704,69,503,11756,5253,5896,57298,0,3,3,2
go to fist,17:17:05.195,29100,7062,2904,1691,966,1384,782,1582,1582,883,931,2395,3520,29162,29113,29118,29140,29069,1467,1318,2425,1458,1964,2592,1190,1160,962,918,1520,1634,29078,29179,2147483647,64718,74,534,11713,5272,5894,57246,0,3,3,2
go to fist,17:17:05.295,29113,7070,2891,1678,949,1357,839,1582,1590,861,962,2395,3498,29113,29109,29078,29052,29091,1454,1362,2469,1450,1973,2592,1155,1146,971,896,1520,1617,29083,29166,2147483647,64716,65,540,11699,5266,5909,57234,0,3,3,2
go to fist,17:17:05.395,29069,7079,2948,1722,962,1415,795,1586,1595,852,940,2399,3502,29188,29056,29078,29091,29104,1463,1353,2482,1485,1951,2610,1129,1173,966,922,1529,1687,29166,29113,2147483647,64724,73,540,11716,5237,5936,57259,0,3,3,2
go to fist,17:17:05.495,29113,7079,2895,1669,975,1401,760,1590,1577,874,918,2390,3520,29157,29039,29065,29087,29056,1428,1353,2465,1445,1964,2619,1164,1182,984,892,1546,1687,29096,29122,2147483647,64720,78,528,11743,5193,5949,57278,0,3,3,2
go to fist,17:17:05.595,29113,7062,2948,1705,966,1384,795,1551,1546,887,922,2395,3550,29188,29065,29052,29043,29087,1441,1366,2408,1445,1973,2605,1164,1168,940,900,1538,1713,29122,29100,2147483647,64716,84,537,11765,5172,5935,57287,0,3,3,2
go to fist,17:17:05.695,29135,7044,2887,1691,984,1371,834,1555,1555,896,975,2408,3489,29118,29104,29083,29039,29091,1454,1379,2447,1415,1920,2544,1177,1129,962,874,1489,1665,29140,29175,2147483647,64723,78,537,11780,5158,5924,57291,0,3,3,2
go to fist,17:17:05.795,29091,7075,2904,1687,984,1362,821,1568,1595,856,944,2390,3546,29162,29153,29043,29126,29074,1458,1384,2434,1458,1964,2562,1204,1182,966,914,1520,1696,29148,29096,2147483647,64730,84,544,11785,5155,5920,57294,0,3,3,2
go to fist,17:17:05.894,29113,7088,2909,1700,993,1393,764,1568,1612,896,949,2408,3489,29135,29096,29074,29069,29087,1458,1335,2452,1415,1964,2544,1173,1155,940,900,1560,1669,29153,29153,2147483647,64723,82,548,11782,5167,5913,57292,0,3,3,2
go to fist,17:17:05.995,29135,7097,2882,1735,975,1357,782,1599,1586,865,936,2438,3493,29153,29096,29052,29021,29083,1472,1379,2425,1437,1933,2601,1199,1168,966,918,1533,1661,29104,29113,2147483647,64732,81,547,11783,5176,5902,57292,0,3,3,2
go to fist,17:17:06.095,29118,7075,2852,1661,966,1401,826,1582,1551,878,883,2395,3498,29184,29157,29078,29091,29087,1476,1357,2434,1419,1924,2535,1186,1160,958,909,1573,1678,29065,29100,2147483647,64720,85,541,11784,5173,5902,57291,0,3,3,2
go to fist,17:17:06.195,29126,7083,2909,1696,971,1349,808,1560,1590,843,962,2434,3533,29166,29091,29039,29078,29113,1458,1362,2438,1472,1946,2540,1151,1164,993,927,1542,1696,29074,29104,2147483647,64727,87,541,11790,5164,5905,57297,0,3,3,2
go to fist,17:17:06.294,29157,7044,2957,1687,997,1384,786,1573,1573,896,914,2408,3572,29179,29131,29109,29091,29109,1489,1375,2425,1458,1973,2548,1164,1173,975,940,1564,1656,29122,29170,2147483647,64721,88,538,11795,5166,5917,57313,0,3,3,2
go to fist,17:17:06.318,29126,7070,2926,1683,966,1357,764,1586,1590,843,922,2381,3520,29170,29113,29069,29052,29043,1454,1371,2421,1458,1964,2531,1186,1155,971,922,1555,1674,29096,29210,2147483647,64725,83,534,11796,5177,5930,57332,0,3,3,2
go to fist,17:17:06.418,29157,7101,2891,1678,979,1401,821,1590,1520,887,909,2399,3524,29206,29083,29096,29100,29039,1458,1340,2434,1441,1911,2562,1212,1164,958,892,1551,1678,29144,29192,2147483647,64720,83,532,11794,5191,5933,57339,0,3,3,2
go to fist,17:17:06.595,29170,7044,2944,1669,993,1393,782,1555,1577,848,997,2425,3480,29148,29078,29078,29078,29034,1454,1357,2412,1480,1968,2570,1177,1142,953,909,1507,1696,29091,29170,2147483647,64720,83,537,11796,5204,5924,57343,0,3,3,2
go to fist,17:17:06.695,29192,7075,2895,1683,984,1406,804,1573,1573,861,931,2403,3502,29162,29126,29021,29126,29148,1450,1353,2430,1450,1964,2562,1212,1151,993,931,1546,1674,29118,29188,2147483647,64723,88,538,11797,5200,5920,57340,0,3,3,2
go to fist,17:17:06.719,29219,7062,2878,1722,953,1423,834,1604,1573,861,944,2351,3515,29170,29109,29039,29030,29083,1463,1371,2399,1472,1959,2562,1177,1164,962,922,1568,1674,29061,29140,2147483647,64724,91,538,11798,5197,5919,57338,0,3,3,2
go to fist,17:17:06.821,29228,7062,2874,1691,979,1379,804,1564,1582,852,966,2430,3520,29166,29153,29078,29096,29122,1445,1388,2452,1458,1942,2570,1173,1173,975,914,1542,1625,29153,29188,2147483647,64725,88,539,11800,5193,5916,57336,0,3,3,2
go to fist,17:17:06.995,29144,7057,2917,1705,971,1379,791,1555,1573,878,931,2364,3458,29109,29126,29096,29069,29157,1437,1322,2465,1441,1920,2540,1164,1190,966,896,1573,1683,29069,29157,2147483647,64727,86,538,11803,5188,5910,57333,0,3,3,2
go to fist,17:17:07.257,29175,7018,2904,1691,1006,1371,821,1568,1564,887,949,2386,3541,29214,29100,29096,29157,29126,1476,1384,2421,1415,1937,2540,1138,1133,966,918,1533,1669,29096,29170,2147483647,64715,88,543,11806,5190,5908,57338,0,3,3,2
go to fist,17:17:07.273,29206,7062,2874,1678,971,1375,830,1546,1560,887,940,2412,3533,29175,29118,29118,29083,29131,1476,1366,2399,1437,1942,2522,1195,1164,984,949,1551,1621,29192,29192,2147483647,64729,85,546,11807,5186,5907,57336,0,3,3,2
go to fist,17:17:07.285,29245,7062,2900,1683,984,1384,808,1568,1560,883,940,2434,3541,29184,29131,29197,29162,29126,1463,1371,2434,1428,1937,2544,1168,1160,944,940,1533,1700,29104,29236,2147483647,64723,92,545,11810,5185,5905,57338,0,3,3,2
go to fist,17:17:07.415,29214,7075,2939,1744,975,1357,821,1555,1573,887,958,2478,3489,29074,29087,28885,28850,29056,1432,1318,2434,1432,1986,2557,1138,1208,966,892,1529,1661,29113,29232,2147483647,64726,93,542,11810,5184,5907,57339,0,3,3,2
go to fist,17:17:07.495,29170,7101,2953,1713,1023,1371,830,1595,1573,848,953,2474,3520,29078,29135,28968,29021,29118,1463,1344,2408,1423,1916,2531,1125,1151,940,909,1560,1678,29074,29179,2147483647,64729,83,544,11818,5160,5911,57337,0,3,3,2
go to fist,17:17:07.595,29061,7105,2992,1727,979,1419,795,1630,1573,870,984,2408,3550,29118,29100,28999,29012,29148,1476,1335,2395,1454,1986,2548,1173,1168,979,931,1529,1665,29069,29100,2147483647,64724,89,545,11826,5137,5916,57339,0,3,3,2
go to fist,17:17:07.695,29144,7101,2975,1700,1001,1371,764,1599,1564,856,931,2487,3563,29144,29122,29091,29078,29153,1454,1371,2399,1472,1924,2548,1151,1168,971,909,1533,1661,29104,29197,2147483647,64731,80,540,11829,5115,5929,57339,0,3,3,2
go to fist,17:17:07.805,29179,7092,2970,1713,1019,1384,839,1582,1577,887,936,2456,3520,29162,29144,29166,29109,29188,1454,1357,2381,1428,1977,2553,1164,1138,966,900,1546,1687,29135,29166,2147483647,64728,80,545,11833,5099,5937,57341,0,3,3,2
go to fist,17:17:07.895,29162,7114,2939,1705,958,1393,804,1568,1573,887,931,2491,3533,29096,29184,29166,29131,29175,1489,1335,2399,1454,1990,2562,1168,1155,949,909,1551,1700,28986,29148,2147483647,64727,82,549,11845,5088,5936,57350,0,3,3,2
go to fist,17:17:07.995,29135,7167,2953,1705,975,1384,799,1608,1533,874,944,2487,3555,29157,29179,29065,29096,29104,1463,1318,2408,1458,1968,2557,1186,1190,984,949,1524,1665,29206,29184,2147483647,64724,75,544,11853,5087,5934,57359,0,3,3,2
go to fist,17:17:08.095,29162,7123,2935,1683,988,1415,821,1590,1590,883,909,2452,3550,29179,29175,29091,29104,29184,1437,1379,2452,1476,1968,2544,1208,1146,993,896,1538,1709,29113,29096,2147483647,64729,77,544,11855,5080,5940,57362,0,3,3,2
go to fist,17:17:08.195,29206,7141,2997,1705,988,1384,817,1595,1590,874,936,2575,3585,29061,29078,28920,28973,29030,1494,1335,2421,1437,1942,2522,1190,1173,971,892,1551,1665,29087,29197,2147483647,64725,74,548,11854,5075,5954,57369,0,3,3,2
go to fist,17:17:08.295,29157,7119,2997,1709,1001,1419,821,1595,1577,905,896,2509,3612,29157,29157,29047,29069,29179,1437,1353,2381,1450,1964,2540,1164,1190,979,896,1546,1687,29083,29083,2147483647,64728,77,558,11854,5067,5972,57377,0,3,3,2
go to fist,17:17:08.395,29175,7141,2983,1735,979,1401,821,1599,1560,843,949,2474,3585,29166,29153,29069,29122,29100,1472,1349,2386,1454,1964,2535,1155,1182,984,922,1577,1696,29148,29170,2147483647,64733,73,550,11850,5067,5992,57385,0,3,3,2
go to fist,17:17:08.495,29140,7132,3023,1678,975,1406,834,1546,1582,830,914,2452,3603,29144,29126,29126,29131,29131,1450,1379,2421,1476,1946,2557,1199,1125,971,953,1538,1722,29140,29131,2147483647,64729,79,544,11846,5069,6001,57387,0,3,3,2
go to fist,17:17:08.595,29192,7132,2935,1718,975,1415,830,1595,1560,870,940,2496,3651,29166,29166,29131,29109,29201,1467,1357,2416,1450,1924,2531,1190,1212,953,953,1524,1665,29096,29162,2147483647,64721,76,534,11847,5061,6009,57389,0,3,3,2
go to fist,17:17:08.705,29078,7145,2997,1735,993,1432,804,1582,1529,874,966,2469,3612,29206,29175,29135,29109,29135,1476,1340,2438,1467,1959,2526,1182,1164,962,927,1590,1669,29078,29184,2147483647,64713,76,532,11849,5061,6025,57405,0,3,3,2
go to fist,17:17:08.795,29061,7185,3023,1718,1019,1458,804,1577,1573,861,931,2496,3625,29162,29144,29188,29219,29135,1472,1384,2421,1458,1995,2518,1208,1195,953,958,1538,1691,29056,29025,2147483647,64716,70,531,11849,5069,6066,57440,0,3,3,2
go to fist,17:17:08.894,29109,7171,3032,1678,1015,1415,786,1595,1529,848,940,2491,3572,29157,29179,29100,29061,29162,1489,1340,2434,1463,1946,2513,1195,1177,993,927,1586,1669,29157,29131,2147483647,64720,70,526,11839,5057,6111,57452,0,3,3,2
go to fist,17:17:08.995,29153,7176,3045,1709,975,1441,786,1586,1577,896,949,2531,3563,29148,29166,29074,29061,29192,1485,1344,2456,1458,1964,2562,1173,1182,979,936,1582,1661,29030,29109,2147483647,64724,63,527,11838,5033,6131,57451,0,3,3,2
go to fist,17:17:09.095,29140,7163,3067,1753,984,1463,839,1555,1551,887,940,2522,3599,29175,29140,29091,29091,29206,1520,1322,2456,1454,1959,2526,1186,1182,958,944,1520,1665,29069,29131,2147483647,64718,65,526,11850,5007,6144,57461,0,3,3,2
go to fist,17:17:09.195,29184,7193,3062,1735,1023,1437,817,1564,1564,843,931,2544,3594,29175,29219,29096,29144,29179,1450,1353,2425,1454,2003,2588,1164,1204,1010,909,1551,1700,29087,29228,2147483647,64716,59,534,11865,4979,6155,57474,0,3,3,2
go to fist,17:17:09.295,29184,7202,3036,1709,953,1437,870,1612,1529,861,953,2518,3577,29245,29113,29148,29122,29219,1476,1327,2430,1450,1981,2570,1195,1195,949,922,1560,1691,29113,29104,2147483647,64727,61,538,11868,4955,6168,57473,0,3,3,2
go to fist,17:17:09.320,29118,7193,3010,1735,984,1485,799,1568,1542,843,962,2570,3625,29241,29206,29113,29131,29210,1480,1415,2438,1441,1999,2535,1182,1173,988,940,1586,1678,29122,29126,2147483647,64728,65,535,11867,4947,6167,57468,0,3,3,2
go to fist,17:17:09.444,29100,7176,3058,1691,979,1467,843,1595,1529,896,949,2553,3625,29140,29100,29034,29021,29118,1437,1340,2425,1441,1981,2566,1199,1195,984,896,1568,1665,29175,29135,2147483647,64722,57,536,11871,4937,6160,57462,0,3,3,2
go to fist,17:17:09.594,29170,7215,3102,1696,975,1494,799,1599,1542,887,962,2592,3647,29236,29175,29140,29162,29140,1489,1300,2456,1450,1973,2592,1164,1186,953,914,1564,1674,29109,29206,2147483647,64722,61,539,11871,4937,6161,57464,0,3,3,2
go to fist,17:17:09.714,29170,7272,3106,1727,984,1489,834,1577,1546,892,936,2579,3704,29201,29148,29140,29083,29144,1511,1344,2452,1441,1999,2619,1168,1151,944,936,1599,1652,29052,29144,2147483647,64719,55,537,11870,4943,6166,57469,0,3,3,2
go to fist,17:17:09.794,29192,7299,3124,1691,971,1476,817,1568,1524,878,975,2531,3634,29166,29096,29122,29140,29122,1445,1357,2452,1445,1990,2641,1199,1199,993,953,1555,1665,29166,29192,2147483647,64723,52,529,11868,4945,6169,57470,0,3,3,2
go to fist,17:17:09.894,29083,7246,3150,1722,988,1485,830,1564,1538,848,922,2513,3695,29135,29131,29065,29078,29170,1472,1353,2412,1441,1995,2614,1173,1177,988,900,1577,1665,29126,29188,2147483647,64722,58,536,11867,4947,6172,57471,0,3,3,2
go to fist,17:17:09.995,29140,7325,3164,1735,1001,1485,834,1551,1502,852,953,2579,3691,29188,29118,29140,29131,29166,1476,1340,2443,1480,1977,2566,1199,1168,975,927,1564,1696,28933,29170,2147483647,64717,61,524,11869,4945,6171,57474,0,3,3,2
wait in fist,17:17:10.094,29162,7360,3186,1753,1023,1485,826,1546,1524,874,958,2583,3665,29241,29179,29144,29047,29157,1458,1353,2456,1454,1999,2592,1190,1195,971,953,1604,1656,28981,29206,2147483647,64714,58,535,11876,4933,6179,57483,0,3,3,2
wait in fist,17:17:10.194,29025,7382,3212,1727,922,1485,817,1546,1472,883,931,2601,3704,29223,29179,29100,29135,29162,1476,1331,2430,1419,1999,2597,1146,1155,936,944,1577,1661,29021,29109,2147483647,64722,57,533,11886,4923,6182,57493,0,3,3,2
wait in fist,17:17:10.294,29170,7369,3225,1722,971,1511,821,1520,1454,878,931,2592,3726,29166,29104,29069,29087,29140,1454,1349,2469,1458,2025,2583,1168,1173,944,918,1612,1665,29021,29184,2147483647,64713,57,530,11890,4911,6192,57498,0,3,3,2
wait in fist,17:17:10.394,29118,7382,3177,1700,988,1472,830,1502,1502,883,971,2610,3687,29135,29219,29065,29087,29210,1437,1388,2447,1410,1986,2557,1129,1168,984,936,1577,1678,28894,29144,2147483647,64721,51,533,11892,4901,6203,57503,0,3,3,2
wait in fist,17:17:10.419,29118,7382,3238,1687,971,1480,799,1555,1428,870,949,2544,3717,29144,29162,29122,29135,29192,1472,1357,2412,1415,1995,2553,1133,1155,971,958,1555,1669,28942,29131,2147483647,64715,56,532,11895,4890,6208,57506,0,3,3,2
wait in fist,17:17:10.517,29148,7431,3278,1753,993,1511,826,1511,1489,914,931,2627,3695,29166,29109,29083,29083,29166,1494,1357,2438,1463,2017,2614,1212,1186,953,953,1560,1674,28977,29148,2147483647,64715,53,535,11898,4883,6213,57509,0,3,3,2
wait in fist,17:17:10.694,29087,7391,3291,1718,958,1507,812,1511,1480,883,896,2614,3687,29157,29214,29184,29122,29140,1485,1379,2469,1428,2017,2553,1186,1204,979,927,1577,1643,29113,29126,2147483647,64718,50,529,11903,4877,6218,57516,0,3,3,2
wait in fist,17:17:10.794,29157,7549,3335,1674,993,1507,808,1494,1467,817,918,2610,3647,29254,29170,29104,29100,29214,1507,1357,2469,1423,1973,2588,1155,1204,971,927,1599,1630,29078,29170,2147483647,64720,48,528,11903,4871,6226,57519,0,3,3,2
wait in fist,17:17:10.894,29157,7523,3339,1700,949,1529,808,1538,1454,856,958,2583,3682,29162,29170,29122,29166,29192,1476,1375,2447,1419,1959,2592,1129,1186,966,944,1577,1674,29043,29184,2147483647,64720,55,539,11906,4867,6220,57516,0,3,3,2
wait in fist,17:17:10.994,29100,7461,3357,1696,1015,1511,839,1472,1432,883,962,2592,3660,29113,29122,29122,29157,29144,1485,1344,2447,1437,2012,2548,1182,1212,997,944,1582,1674,28867,29109,2147483647,64717,58,538,11911,4855,6222,57519,0,3,3,2
wait in fist,17:17:11.016,29166,7479,3366,1749,1001,1520,812,1458,1415,865,958,2619,3695,29184,29184,29135,29148,29162,1489,1344,2438,1437,1977,2597,1190,1186,979,918,1533,1718,29087,29140,2147483647,64711,49,534,11914,4844,6233,57525,0,3,3,2
wait in fist,17:17:11.194,29091,7466,3357,1700,979,1533,821,1502,1428,892,962,2588,3691,29069,29091,29157,29131,29131,1415,1340,2460,1423,1933,2610,1195,1199,975,927,1533,1678,28986,29118,2147483647,64709,55,534,11918,4858,6240,57546,0,3,3,2
wait in fist,17:17:11.294,29140,7479,3357,1709,997,1511,817,1472,1458,834,931,2601,3634,29118,29118,29135,29096,29118,1467,1340,2438,1437,1990,2605,1173,1155,971,940,1560,1674,29052,29179,2147483647,64713,43,529,11918,4881,6260,57575,0,3,3,2
wait in fist,17:17:11.394,29131,7439,3282,1757,975,1516,821,1445,1428,914,953,2579,3616,29096,29083,29104,29087,29153,1463,1375,2386,1485,1955,2588,1142,1146,962,962,1634,1647,28973,29170,2147483647,64720,44,531,11914,4902,6283,57599,0,3,3,2
wait in fist,17:17:11.495,29197,7448,3348,1718,993,1494,826,1511,1458,874,953,2570,3594,29175,29157,29166,29162,29192,1485,1357,2456,1445,1973,2588,1195,1164,993,944,1560,1722,28911,29162,2147483647,64719,55,526,11911,4914,6311,57626,0,3,3,2
wait in fist,17:17:11.517,29131,7488,3344,1691,940,1551,821,1450,1432,900,931,2570,3625,29140,29157,29109,29144,29157,1454,1362,2443,1397,1981,2597,1155,1186,953,940,1573,1705,29012,29140,2147483647,64713,66,514,11910,4939,6333,57658,0,3,3,2
wait in fist,17:17:11.694,29201,7461,3335,1705,984,1507,791,1467,1428,887,922,2592,3607,29122,29162,29192,29153,29144,1432,1357,2447,1445,2017,2623,1129,1186,1006,914,1555,1683,29074,29135,2147483647,64711,73,514,11908,4960,6342,57673,0,3,3,2
wait in fist,17:17:11.794,29170,7501,3392,1683,984,1529,812,1476,1410,900,949,2566,3625,29157,29166,29157,29122,29135,1467,1401,2395,1428,2030,2583,1212,1155,975,936,1533,1669,29034,29135,2147483647,64709,68,512,11906,4965,6341,57673,0,3,3,2
wait in fist,17:17:11.894,29157,7439,3366,1718,1006,1476,826,1485,1388,834,953,2557,3577,29140,29153,29153,29188,29201,1454,1353,2416,1450,1964,2641,1146,1173,979,896,1590,1661,29083,29153,2147483647,64711,61,514,11911,4969,6339,57682,0,3,3,2
wait in fist,17:17:11.994,29184,7435,3353,1683,993,1485,826,1463,1445,874,962,2562,3577,29109,29157,29135,29135,29122,1476,1379,2412,1454,1995,2588,1151,1190,962,940,1573,1665,28911,29157,2147483647,64709,60,516,11911,4962,6336,57674,0,3,3,2
wait in fist,17:17:12.094,29135,7497,3326,1740,1010,1502,812,1502,1419,887,993,2513,3612,29135,29219,29166,29192,29153,1463,1375,2386,1458,1942,2605,1155,1234,993,918,1551,1674,28916,29135,2147483647,64710,61,521,11913,4947,6326,57660,0,3,3,2
wait in fist,17:17:12.195,29162,7510,3388,1678,1041,1511,804,1507,1428,905,949,2562,3647,29140,29113,29162,29179,29197,1441,1357,2381,1450,1959,2623,1133,1177,971,905,1595,1652,28999,29184,2147483647,64707,57,521,11922,4933,6310,57652,0,3,3,2
wait in fist,17:17:12.294,29083,7527,3374,1722,962,1498,808,1445,1450,821,900,2540,3533,29166,29162,29148,29170,29192,1463,1349,2403,1428,1902,2592,1160,1199,1006,887,1529,1691,28942,29078,2147483647,64710,57,521,11928,4922,6297,57645,0,3,3,2
wait in fist,17:17:12.394,29236,7545,3379,1705,1001,1476,777,1397,1450,900,940,2522,3603,29140,29153,29140,29140,29144,1476,1353,2425,1437,1968,2605,1155,1129,958,949,1564,1722,28924,29197,2147483647,64712,54,529,11929,4926,6279,57634,0,3,3,2
wait in fist,17:17:12.504,29109,7514,3432,1674,975,1458,799,1480,1454,865,936,2557,3612,29162,29140,29113,29083,29148,1454,1340,2373,1472,1995,2575,1182,1182,975,900,1555,1683,28929,29122,2147483647,64711,54,524,11925,4919,6267,57615,0,3,3,2
wait in fist,17:17:12.605,29056,7536,3405,1718,1015,1494,826,1480,1401,865,922,2544,3607,29078,29175,29148,29157,29140,1480,1353,2386,1410,1942,2614,1195,1186,936,958,1560,1669,29104,29100,2147483647,64713,53,528,11922,4919,6258,57602,0,3,3,2
wait in fist,17:17:12.694,29144,7562,3414,1718,962,1502,839,1489,1441,887,927,2496,3577,29012,29188,29184,29162,29245,1458,1357,2403,1441,1959,2579,1151,1146,979,909,1560,1656,29179,29109,2147483647,64712,52,526,11918,4912,6256,57589,0,3,3,2
wait in fist,17:17:12.794,29144,7523,3445,1709,988,1520,812,1485,1458,839,949,2579,3612,29201,29188,29131,29192,29197,1472,1406,2386,1432,1929,2601,1168,1173,971,914,1586,1674,29078,29157,2147483647,64717,55,529,11910,4906,6256,57574,0,3,3,2
wait in fist,17:17:12.894,29122,7510,3366,1718,940,1511,804,1485,1437,887,953,2570,3599,29140,29210,29069,29144,29179,1511,1318,2368,1428,1959,2562,1173,1182,979,887,1599,1687,29030,29113,2147483647,64719,53,530,11905,4910,6254,57568,0,3,3,2
wait in fist,17:17:12.917,29140,7492,3396,1713,1001,1502,812,1454,1450,865,971,2570,3590,29192,29228,29148,29197,29197,1480,1362,2381,1445,1968,2575,1146,1146,966,896,1577,1630,29056,29135,2147483647,64712,46,532,11900,4908,6258,57563,0,3,3,2
wait in fist,17:17:13.094,29069,7541,3375,1691,984,1494,852,1441,1489,878,944,2575,3621,29201,29166,29162,29170,29175,1463,1335,2359,1450,1924,2597,1146,1146,953,940,1542,1656,29052,29083,2147483647,64713,46,526,11897,4904,6260,57558,0,3,3,2
wait in fist,17:17:13.194,29109,7510,3427,1696,1001,1524,804,1458,1463,874,971,2588,3599,29140,29206,29157,29210,29271,1454,1331,2408,1432,1937,2575,1138,1155,1001,896,1577,1674,29069,29109,2147483647,64716,55,523,11896,4902,6263,57557,0,3,3,2
wait in fist,17:17:13.218,29104,7514,3375,1691,966,1524,795,1485,1419,883,966,2566,3629,29184,29162,29100,29148,29201,1485,1335,2395,1445,1916,2579,1142,1160,966,931,1564,1661,29043,29113,2147483647,64720,58,524,11895,4902,6264,57556,0,3,3,2
wait in fist,17:17:13.394,29104,7497,3427,1683,949,1516,834,1472,1437,870,962,2504,3621,29188,29210,29166,29201,29197,1502,1335,2399,1397,1933,2553,1151,1155,1001,896,1560,1625,29118,29162,2147483647,64715,57,528,11894,4906,6256,57551,0,3,3,2
wait in fist,17:17:13.419,29078,7562,3357,1661,988,1445,821,1476,1423,852,944,2526,3634,29083,29148,29131,29201,29170,1441,1344,2408,1480,1937,2579,1142,1146,949,892,1568,1665,29126,29118,2147483647,64716,55,524,11888,4921,6242,57541,0,3,3,2
wait in fist,17:17:13.594,29148,7527,3423,1709,993,1507,812,1441,1445,870,936,2548,3634,29131,29175,29175,29201,29236,1480,1384,2364,1454,1937,2592,1138,1168,971,949,1573,1674,29100,29144,2147483647,64712,56,532,11882,4938,6226,57529,0,3,3,2
wait in fist,17:17:13.695,29065,7519,3374,1727,988,1520,817,1450,1437,878,944,2553,3643,29118,29157,29175,29201,29144,1494,1331,2373,1467,1959,2553,1142,1190,971,962,1568,1696,29056,29061,2147483647,64715,54,530,11876,4950,6211,57516,0,3,3,2
wait in fist,17:17:13.794,29052,7536,3366,1749,993,1498,808,1458,1458,909,979,2562,3599,29179,29223,29184,29153,29228,1445,1344,2368,1445,1959,2562,1160,1125,979,958,1577,1665,29069,29148,2147483647,64713,60,532,11872,4960,6201,57508,0,3,3,2
wait in fist,17:17:13.894,29043,7475,3366,1683,1010,1511,804,1485,1406,865,927,2548,3647,29140,29166,29135,29162,29245,1458,1331,2403,1458,1977,2592,1133,1173,988,931,1555,1599,29039,29008,2147483647,64719,61,534,11873,4957,6197,57505,0,3,3,2
wait in fist,17:17:13.994,28999,7523,3414,1674,975,1494,791,1458,1441,865,966,2540,3660,29135,29206,29184,29170,29201,1445,1371,2359,1419,1973,2575,1186,1186,953,931,1551,1691,29087,29043,2147483647,64718,61,530,11873,4958,6192,57501,0,3,3,2
wait in fist,17:17:14.095,29087,7545,3427,1700,1015,1502,795,1467,1432,878,896,2553,3647,29179,29166,29162,29162,29157,1450,1349,2381,1437,1946,2540,1129,1146,975,936,1564,1639,29030,28981,2147483647,64715,60,535,11869,4964,6186,57496,0,3,3,2
wait in fist,17:17:14.194,28999,7541,3383,1722,1015,1516,799,1458,1437,878,984,2535,3612,29206,29210,29241,29197,29232,1467,1344,2386,1410,1955,2627,1120,1125,971,922,1573,1687,29074,29021,2147483647,64715,63,539,11863,4972,6181,57487,0,3,3,2
wait in fist,17:17:14.218,29047,7558,3392,1687,993,1538,777,1463,1450,887,936,2522,3643,29166,29236,29122,29104,29206,1480,1357,2373,1415,1946,2583,1182,1182,949,949,1564,1691,29061,29021,2147483647,64718,62,536,11861,4975,6177,57484,0,3,3,2
wait in fist,17:17:14.395,29017,7527,3396,1691,979,1524,808,1415,1415,900,953,2548,3656,29179,29236,29188,29214,29228,1489,1362,2355,1463,1946,2588,1133,1182,953,922,1551,1674,29100,28973,2147483647,64721,58,533,11860,4968,6176,57476,0,3,3,2
wait in fist,17:17:14.495,28959,7510,3375,1683,997,1520,804,1437,1450,870,962,2531,3594,29144,29170,29175,29148,29206,1401,1349,2359,1437,1937,2570,1107,1168,984,909,1568,1634,29074,28964,2147483647,64719,62,533,11861,4962,6173,57472,0,3,3,2
wait in fist,17:17:14.594,29052,7541,3396,1687,993,1542,821,1467,1437,896,914,2513,3629,29175,29210,29144,29223,29197,1489,1353,2346,1428,1977,2562,1164,1138,971,936,1568,1647,29069,29047,2147483647,64718,58,535,11862,4958,6172,57470,0,3,3,2
wait in fist,17:17:14.618,29083,7532,3388,1696,997,1511,821,1437,1454,896,949,2548,3629,29184,29201,29153,29201,29131,1406,1384,2368,1445,1933,2575,1142,1155,962,931,1586,1709,29069,29021,2147483647,64723,53,536,11863,4952,6171,57467,0,3,3,2
wait in fist,17:17:14.795,29065,7549,3383,1713,1001,1507,795,1476,1441,892,914,2526,3607,29179,29170,29140,29188,29126,1485,1327,2377,1437,1911,2614,1190,1155,953,940,1529,1643,28999,29003,2147483647,64720,54,537,11865,4947,6166,57463,0,3,3,2
wait in fist,17:17:14.894,29069,7488,3396,1700,979,1489,795,1458,1415,856,909,2544,3616,29184,29223,29144,29179,29148,1432,1340,2386,1437,1929,2610,1107,1155,979,944,1577,1621,29034,28995,2147483647,64718,53,536,11867,4939,6161,57458,0,3,3,2
wait in fist,17:17:14.994,29061,7527,3379,1713,1023,1529,812,1428,1415,874,927,2522,3634,29197,29131,29140,29153,29166,1441,1366,2337,1401,1973,2548,1111,1146,975,940,1564,1661,29056,29025,2147483647,64720,56,539,11868,4934,6160,57456,0,3,3,2
fist to thumbs,17:17:15.094,28968,7532,3423,1696,927,1494,764,1428,1423,865,927,2562,3577,29153,29166,29188,29245,29175,1419,1353,2381,1428,1942,2601,1160,1164,931,922,1590,1674,29078,29021,2147483647,64723,61,533,11869,4931,6160,57455,0,3,3,2
fist to thumbs,17:17:15.195,29017,7505,3366,1713,949,1498,834,1485,1441,843,931,2522,3665,29162,29153,29175,29140,29148,1445,1384,2311,1467,1937,2570,1155,1173,971,914,1582,1652,29039,29113,2147483647,64715,66,537,11870,4928,6157,57453,0,3,3,2
fist to thumbs,17:17:15.294,29131,7510,3383,1700,997,1511,791,1467,1437,874,914,2487,3612,29148,29157,29148,29201,29192,1476,1371,2381,1463,1929,2562,1146,1125,931,931,1542,1678,29091,29052,2147483647,64715,59,535,11875,4930,6153,57458,0,3,3,2
fist to thumbs,17:17:15.394,28981,7532,3418,1709,971,1502,804,1498,1441,883,931,2566,3629,29135,29118,29144,29170,29153,1428,1340,2368,1467,1946,2570,1146,1182,975,905,1542,1643,29061,29083,2147483647,64721,54,540,11873,4932,6156,57459,0,3,3,2
fist to thumbs,17:17:15.494,28977,7470,3375,1674,979,1524,830,1467,1419,865,940,2540,3634,29197,29170,29170,29166,29188,1437,1318,2351,1397,1920,2592,1186,1173,1001,927,1555,1674,29096,28999,2147483647,64721,61,537,11869,4941,6153,57456,0,3,3,2
fist to thumbs,17:17:15.595,28933,7523,3445,1674,940,1498,830,1454,1415,870,953,2504,3594,29153,29162,29192,29166,29175,1472,1349,2408,1472,1942,2570,1195,1160,962,931,1560,1625,29047,29003,2147483647,64713,55,535,11867,4952,6147,57455,0,3,3,2
fist to thumbs,17:17:15.694,29021,7545,3418,1656,971,1507,795,1450,1454,896,944,2504,3581,29157,29179,29148,29144,29179,1489,1344,2333,1432,1973,2531,1151,1160,971,936,1542,1643,29109,29030,2147483647,64717,58,542,11865,4954,6150,57456,0,3,3,2
fist to thumbs,17:17:15.794,29039,7549,3414,1683,971,1476,773,1467,1432,883,931,2509,3581,29153,29192,29113,29192,29192,1472,1379,2377,1432,1959,2588,1177,1177,966,944,1560,1674,29061,28981,2147483647,64721,58,537,11863,4950,6159,57456,0,3,3,2
fist to thumbs,17:17:15.894,29122,7580,3383,1678,975,1485,812,1441,1419,883,909,2509,3629,29162,29179,29210,29192,29153,1441,1322,2368,1445,1955,2544,1133,1142,975,878,1551,1683,29131,29113,2147483647,64717,50,539,11866,4934,6167,57458,0,3,3,2
fist to thumbs,17:17:15.918,29087,7501,3423,1683,975,1516,795,1454,1401,887,909,2513,3594,29122,29188,29122,29166,29184,1445,1362,2364,1445,1942,2575,1168,1164,944,940,1546,1674,29096,28986,2147483647,64720,52,533,11871,4925,6173,57464,0,3,3,2
fist to thumbs,17:17:16.094,29025,7558,3423,1718,971,1476,821,1485,1428,874,922,2526,3643,29131,29166,29201,29162,29162,1494,1331,2364,1432,1929,2562,1125,1177,979,940,1568,1696,29047,29039,2147483647,64720,55,536,11870,4920,6181,57466,0,3,3,2
fist to thumbs,17:17:16.194,29047,7562,3366,1709,984,1533,804,1454,1410,839,975,2540,3603,29056,29144,29162,29109,29166,1476,1340,2364,1441,1937,2575,1138,1155,931,918,1568,1683,29087,28973,2147483647,64720,50,538,11869,4918,6187,57467,0,3,3,2
fist to thumbs,17:17:16.217,28977,7541,3366,1674,1010,1494,817,1419,1415,905,949,2535,3621,29126,29162,29148,29148,29188,1472,1366,2395,1432,1942,2570,1155,1133,966,949,1555,1713,29122,28999,2147483647,64718,49,535,11872,4905,6189,57466,0,3,3,2
fist to thumbs,17:17:16.394,29034,7593,3458,1700,979,1533,830,1445,1454,892,940,2526,3643,29096,29113,29135,29162,29166,1454,1349,2395,1423,1937,2562,1146,1168,940,922,1560,1683,29065,29047,2147483647,64721,53,538,11877,4888,6196,57467,0,3,3,2
fist to thumbs,17:17:16.417,29047,7536,3440,1678,988,1516,808,1458,1419,878,944,2504,3682,29113,29153,29153,29192,29206,1472,1309,2373,1485,1937,2583,1182,1133,979,953,1555,1683,29052,29069,2147483647,64721,52,532,11880,4879,6195,57467,0,3,3,2
fist to thumbs,17:17:16.594,29100,7567,3436,1700,997,1476,782,1467,1432,883,927,2557,3682,29144,29197,29126,29148,29144,1467,1344,2373,1454,1951,2566,1204,1190,940,931,1564,1634,29043,29012,2147483647,64726,49,539,11881,4877,6194,57466,0,3,3,2
fist to thumbs,17:17:16.695,29087,7584,3458,1727,979,1476,834,1441,1401,900,931,2526,3673,29113,29175,29091,29192,29228,1437,1331,2368,1410,1955,2597,1168,1173,993,927,1538,1656,29043,29087,2147483647,64716,52,535,11883,4876,6189,57464,0,3,3,2
fist to thumbs,17:17:16.794,29100,7611,3462,1683,962,1494,821,1432,1406,914,958,2518,3660,29153,29144,29219,29245,29166,1458,1340,2390,1415,1937,2544,1146,1168,922,958,1546,1630,29153,29074,2147483647,64722,50,532,11881,4873,6192,57463,0,3,3,2
fist to thumbs,17:17:16.894,29069,7584,3432,1669,988,1489,804,1441,1437,887,975,2522,3585,29232,29144,29192,29166,29184,1485,1371,2364,1423,1907,2597,1164,1151,988,905,1551,1652,29021,29061,2147483647,64721,48,539,11878,4872,6198,57462,0,3,3,2
fist to thumbs,17:17:16.994,29131,7576,3432,1683,975,1502,799,1498,1410,914,958,2513,3695,29069,29179,29170,29223,29140,1472,1309,2368,1428,1951,2619,1133,1190,953,953,1560,1643,29061,29083,2147483647,64721,49,535,11879,4867,6198,57460,0,3,3,2
fist to thumbs,17:17:17.095,29087,7576,3414,1705,1015,1480,769,1458,1397,865,971,2540,3713,29184,29153,29192,29219,29131,1463,1327,2403,1441,1929,2579,1186,1164,979,922,1590,1634,29030,29100,2147483647,64715,48,530,11880,4863,6198,57458,0,3,3,2
fist to thumbs,17:17:17.194,29148,7567,3436,1718,997,1524,804,1423,1406,905,949,2522,3678,29140,29219,29184,29184,29214,1489,1344,2373,1437,1920,2570,1142,1125,966,927,1538,1634,29061,29153,2147483647,64717,49,540,11878,4861,6201,57457,0,3,3,2
fist to thumbs,17:17:17.294,29096,7571,3414,1696,997,1516,782,1445,1428,887,971,2557,3651,29201,29170,29201,29192,29144,1458,1349,2351,1432,1937,2588,1173,1155,966,927,1538,1669,29008,29083,2147483647,64725,44,537,11877,4859,6207,57458,0,3,3,2
fist to thumbs,17:17:17.395,29096,7624,3467,1678,1006,1533,804,1467,1419,852,988,2548,3629,29153,29122,29245,29258,29162,1472,1371,2329,1445,1946,2583,1146,1173,949,940,1573,1617,29052,29109,2147483647,64718,38,539,11874,4858,6210,57456,0,3,3,2
fist to thumbs,17:17:17.494,29126,7589,3502,1705,1006,1538,786,1454,1423,870,918,2518,3656,29140,29179,29192,29175,29157,1458,1357,2342,1454,1959,2583,1142,1182,944,944,1573,1643,29052,29083,2147483647,64720,40,536,11873,4859,6211,57456,0,3,3,2
fist to thumbs,17:17:17.594,29113,7567,3471,1678,993,1489,786,1450,1410,878,922,2487,3634,29100,29153,29232,29122,29197,1472,1349,2346,1441,1942,2592,1138,1146,962,944,1560,1656,28995,29087,2147483647,64722,42,536,11872,4860,6213,57457,0,3,3,2
fist to thumbs,17:17:17.694,29100,7598,3449,1665,975,1507,799,1498,1401,905,905,2540,3665,29078,29175,29192,29184,29100,1441,1327,2337,1401,1968,2583,1129,1177,918,909,1542,1661,29056,29100,2147483647,64726,38,539,11869,4862,6217,57457,0,3,3,2
fist to thumbs,17:17:17.795,29096,7576,3445,1696,988,1533,764,1480,1441,852,927,2500,3625,29184,29144,29232,29197,29135,1454,1340,2359,1432,1959,2557,1138,1182,962,949,1560,1661,29034,29087,2147483647,64718,36,542,11871,4850,6216,57452,0,3,3,2
fist to thumbs,17:17:17.894,29096,7593,3489,1722,997,1511,808,1467,1423,870,927,2469,3651,29192,29135,29170,29153,29148,1489,1362,2390,1454,1955,2579,1177,1168,997,966,1524,1652,29087,29104,2147483647,64721,37,534,11871,4840,6217,57447,0,3,3,2
fist to thumbs,17:17:17.994,29083,7611,3484,1674,1023,1520,812,1450,1419,887,962,2496,3607,29162,29166,29179,29219,29184,1472,1331,2368,1428,1920,2601,1129,1177,953,887,1555,1625,29017,29030,2147483647,64716,37,537,11871,4831,6218,57442,0,3,3,2
fist to thumbs,17:17:18.105,29126,7624,3436,1683,988,1502,795,1458,1428,852,922,2531,3638,29162,29170,29188,29201,29140,1450,1340,2351,1437,1946,2579,1190,1138,953,918,1577,1617,29008,29087,2147483647,64719,36,530,11871,4823,6220,57438,0,3,3,2
fist to thumbs,17:17:18.195,29140,7606,3436,1691,984,1498,751,1450,1371,892,953,2518,3625,29074,29131,29214,29228,29118,1485,1340,2351,1445,1933,2570,1160,1160,1001,922,1533,1665,29184,29126,2147483647,64717,39,536,11868,4817,6225,57435,0,3,3,2
fist to thumbs,17:17:18.294,29087,7650,3445,1691,979,1507,821,1432,1423,887,914,2500,3616,29140,29109,29206,29197,29157,1476,1375,2351,1450,1907,2570,1142,1164,962,896,1564,1652,29100,29096,2147483647,64716,34,531,11867,4814,6227,57434,0,3,3,2
fist to thumbs,17:17:18.394,29083,7628,3436,1691,962,1502,769,1467,1415,852,953,2518,3616,29162,29166,29175,29210,29184,1432,1327,2298,1423,1946,2592,1190,1133,971,958,1538,1621,28973,29122,2147483647,64717,34,537,11867,4809,6228,57431,0,3,3,2
fist to thumbs,17:17:18.416,29091,7554,3401,1669,966,1524,821,1480,1366,852,940,2544,3643,29170,29179,29166,29258,29184,1445,1366,2355,1415,1929,2575,1168,1138,962,962,1590,1678,29003,29122,2147483647,64721,35,540,11867,4802,6229,57428,0,3,3,2
fist to thumbs,17:17:18.595,29083,7602,3489,1643,979,1511,786,1450,1428,905,953,2509,3612,29210,29175,29210,29228,29188,1437,1366,2333,1458,1955,2557,1151,1155,962,922,1590,1678,28964,29109,2147483647,64720,33,534,11868,4795,6229,57425,0,3,3,2
fist to thumbs,17:17:18.617,29122,7536,3458,1691,984,1489,786,1467,1410,839,936,2513,3643,29153,29162,29157,29188,29170,1410,1375,2373,1476,1902,2540,1168,1138,953,940,1564,1674,28968,29104,2147483647,64715,35,534,11867,4790,6231,57423,0,3,3,2
fist to thumbs,17:17:18.717,29074,7628,3480,1652,1023,1480,821,1463,1410,865,966,2540,3577,29162,29184,29166,29144,29188,1458,1327,2342,1415,1920,2614,1142,1151,975,944,1568,1683,29008,29184,2147483647,64720,34,535,11867,4785,6233,57420,0,3,3,2
fist to thumbs,17:17:18.895,29083,7584,3484,1705,997,1489,817,1423,1441,878,966,2496,3643,29157,29135,29153,29166,29166,1467,1366,2355,1445,1942,2566,1164,1138,966,931,1573,1652,29043,29030,2147483647,64720,31,536,11866,4780,6234,57417,0,3,3,2
fist to thumbs,17:17:18.994,29078,7576,3454,1691,988,1507,817,1463,1437,848,878,2531,3629,29131,29153,29144,29188,29148,1450,1388,2351,1401,1924,2601,1138,1155,936,905,1573,1674,29021,29113,2147483647,64719,32,545,11866,4774,6235,57414,0,3,3,2
fist to thumbs,17:17:19.094,29083,7541,3476,1722,984,1502,795,1472,1415,848,922,2474,3607,29113,29153,29148,29122,29179,1463,1357,2355,1423,1942,2579,1129,1168,936,918,1546,1696,29135,29113,2147483647,64721,31,538,11866,4775,6235,57414,0,3,3,2
fist to thumbs,17:17:19.116,29113,7650,3493,1661,1054,1529,786,1489,1432,905,953,2491,3643,29179,29175,29197,29192,29166,1441,1353,2315,1485,1959,2579,1160,1151,944,953,1590,1625,29083,29074,2147483647,64723,27,534,11866,4774,6235,57414,0,3,3,2
fist to thumbs,17:17:19.295,29144,7633,3489,1683,979,1529,786,1498,1432,861,958,2500,3590,29184,29179,29140,29104,29157,1476,1327,2342,1419,1920,2601,1155,1129,1010,936,1546,1639,29043,29100,2147483647,64721,31,545,11866,4775,6235,57415,0,3,3,2
fist to thumbs,17:17:19.394,29065,7602,3498,1678,958,1520,812,1454,1379,830,940,2526,3612,29175,29210,29170,29184,29118,1441,1353,2386,1437,1964,2522,1164,1190,944,927,1542,1687,29030,29087,2147483647,64722,28,546,11865,4777,6238,57416,0,3,3,2
fist to thumbs,17:17:19.417,29122,7668,3471,1678,1019,1520,817,1472,1419,870,971,2513,3581,29179,29083,29118,29144,29126,1476,1379,2381,1450,1937,2583,1168,1111,958,936,1542,1678,29052,29091,2147483647,64724,29,543,11864,4778,6240,57417,0,3,3,2
fist to thumbs,17:17:19.595,29122,7589,3467,1674,975,1507,782,1494,1393,848,918,2540,3599,29179,29144,29175,29166,29175,1423,1340,2373,1397,1933,2592,1155,1164,975,927,1573,1661,29065,29091,2147483647,64721,26,535,11863,4772,6242,57414,0,3,3,2
fist to thumbs,17:17:19.617,29135,7615,3493,1691,953,1502,795,1498,1393,905,922,2553,3651,29170,29148,29122,29166,29126,1415,1349,2386,1432,1911,2597,1142,1116,966,900,1546,1647,29039,29118,2147483647,64720,28,537,11864,4765,6241,57411,0,3,3,2
fist to thumbs,17:17:19.794,29118,7664,3476,1687,940,1507,826,1489,1423,900,993,2482,3599,29166,29162,29175,29153,29206,1445,1397,2373,1419,1968,2588,1129,1177,971,936,1542,1652,29083,29100,2147483647,64715,26,540,11865,4759,6240,57407,0,3,3,2
fist to thumbs,17:17:19.821,29162,7646,3458,1674,988,1520,782,1480,1428,883,953,2557,3607,29153,29087,29131,29157,29109,1454,1353,2377,1437,1977,2562,1160,1168,966,936,1560,1669,29083,29100,2147483647,64717,21,543,11864,4755,6241,57405,0,3,3,2
fist to thumbs,17:17:20.005,29179,7672,3449,1678,988,1494,799,1516,1401,870,940,2557,3625,29104,29153,29043,29087,29162,1458,1327,2373,1445,1964,2601,1195,1133,979,927,1538,1630,29140,29179,2147483647,64718,34,535,11867,4742,6249,57407,0,3,3,2
rest in thumbs,17:17:20.094,29175,7664,3541,1656,958,1520,782,1498,1423,896,962,2531,3643,29087,29122,29069,28968,29126,1450,1366,2359,1454,1894,2685,1168,1186,940,949,1542,1652,29096,29232,2147483647,64721,19,545,11875,4723,6252,57410,0,3,3,2
rest in thumbs,17:17:20.194,29030,7650,3528,1727,1001,1542,791,1511,1432,870,936,2500,3616,29166,29091,29148,29201,29091,1463,1362,2373,1419,1942,2671,1155,1164,931,896,1516,1683,29087,29047,2147483647,64721,25,545,11882,4717,6261,57423,0,3,3,2
rest in thumbs,17:17:20.294,29148,7703,3524,1656,993,1524,799,1476,1476,874,922,2531,3634,29188,29113,29192,29175,29148,1485,1331,2377,1441,1916,2658,1195,1204,962,931,1577,1652,29056,29157,2147483647,64713,29,542,11888,4713,6256,57426,0,3,3,2
rest in thumbs,17:17:20.395,29078,7659,3559,1696,949,1516,782,1485,1437,892,909,2526,3577,29175,29091,29148,29166,29118,1463,1344,2333,1397,1937,2649,1142,1138,979,909,1555,1700,29087,29135,2147483647,64727,23,543,11886,4715,6267,57434,0,3,3,2
rest in thumbs,17:17:20.494,29153,7716,3524,1678,1001,1502,839,1507,1415,856,966,2518,3634,29104,29087,29039,29078,29131,1476,1327,2342,1415,1946,2715,1168,1190,997,944,1564,1625,29175,29135,2147483647,64727,26,539,11883,4719,6276,57438,0,3,3,2
rest in thumbs,17:17:20.517,29065,7672,3498,1678,993,1507,808,1498,1428,878,958,2482,3643,29188,29078,29131,29126,29122,1480,1322,2320,1432,1898,2676,1155,1186,979,918,1555,1639,29069,29179,2147483647,64714,28,535,11881,4719,6281,57439,0,3,3,2
rest in thumbs,17:17:20.695,29118,7677,3489,1683,1019,1480,804,1476,1423,865,936,2500,3621,29232,29184,29201,29197,29126,1458,1349,2368,1432,1933,2649,1142,1195,979,922,1542,1669,29091,29096,2147483647,64722,32,535,11882,4720,6284,57444,0,3,3,2
rest in thumbs,17:17:20.795,29069,7620,3506,1700,966,1507,773,1511,1441,883,958,2500,3603,29131,29113,29131,29140,29083,1472,1327,2355,1445,1951,2654,1129,1129,979,927,1538,1678,29078,29100,2147483647,64731,28,534,11882,4717,6285,57442,0,3,3,2
rest in thumbs,17:17:20.895,29065,7620,3498,1678,988,1538,795,1489,1406,874,984,2491,3612,29184,29140,29201,29250,29122,1454,1318,2355,1397,1920,2698,1177,1125,979,940,1586,1665,29140,29131,2147483647,64722,35,536,11883,4714,6282,57440,0,3,3,2
rest in thumbs,17:17:20.994,29065,7602,3515,1696,979,1529,830,1502,1432,883,940,2487,3599,29166,29065,29104,29135,29069,1476,1305,2346,1441,1916,2658,1164,1186,997,953,1573,1691,29056,29017,2147483647,64719,33,541,11885,4717,6277,57442,0,3,3,2
rest in thumbs,17:17:21.095,29087,7637,3502,1709,1019,1498,791,1445,1397,883,940,2500,3651,29197,29122,29148,29179,29179,1458,1318,2337,1441,1924,2632,1168,1129,958,927,1511,1661,29061,29122,2147483647,64721,30,543,11885,4716,6272,57436,0,3,3,2
rest in thumbs,17:17:21.195,29126,7611,3493,1700,1006,1507,773,1472,1393,870,966,2478,3568,29184,29091,29113,29175,29096,1428,1274,2373,1472,1959,2619,1142,1125,958,914,1560,1656,29109,29091,2147483647,64717,31,542,11884,4713,6273,57434,0,3,3,2
rest in thumbs,17:17:21.294,29087,7668,3515,1696,984,1507,799,1507,1441,922,940,2474,3616,29228,29175,29184,29135,29153,1472,1335,2368,1454,1933,2641,1168,1133,962,922,1551,1665,29091,29118,2147483647,64723,29,539,11884,4710,6275,57433,0,3,3,2
rest in thumbs,17:17:21.394,29122,7690,3498,1678,988,1507,826,1454,1419,883,931,2465,3594,29135,29162,29192,29126,29109,1467,1313,2302,1423,1924,2632,1138,1138,962,914,1573,1665,29148,29140,2147483647,64719,20,539,11884,4706,6273,57431,0,3,3,2
rest in thumbs,17:17:21.495,29126,7562,3449,1674,1006,1489,821,1485,1423,887,953,2469,3581,29201,29192,29184,29175,29144,1437,1305,2364,1437,1973,2605,1160,1168,936,918,1538,1674,29061,29096,2147483647,64716,32,542,11886,4701,6270,57428,0,3,3,2
rest in thumbs,17:17:21.594,29153,7602,3471,1669,988,1511,799,1463,1419,839,936,2460,3599,29157,29153,29118,29153,29148,1450,1309,2342,1428,1916,2667,1155,1133,949,931,1568,1687,29034,29083,2147483647,64720,24,536,11885,4699,6274,57429,0,3,3,2
rest in thumbs,17:17:21.694,29091,7606,3524,1674,1019,1533,799,1472,1393,883,958,2474,3612,29192,29126,29201,29179,29184,1463,1274,2364,1397,1955,2667,1155,1125,1010,944,1568,1683,29052,29087,2147483647,64729,25,541,11885,4695,6275,57426,0,3,3,2
rest in thumbs,17:17:21.795,29069,7668,3480,1647,984,1489,799,1494,1428,900,966,2447,3577,29188,29140,29170,29223,29113,1450,1296,2315,1437,1973,2632,1186,1133,984,936,1555,1665,29118,29135,2147483647,64721,26,543,11886,4689,6272,57423,0,3,3,2
rest in thumbs,17:17:21.819,29061,7615,3471,1691,1006,1485,821,1489,1384,892,962,2469,3616,29157,29157,29192,29192,29188,1476,1300,2355,1410,1920,2641,1173,1151,1010,953,1582,1656,28986,29087,2147483647,64723,22,541,11887,4685,6272,57421,0,3,3,2
rest in thumbs,17:17:21.994,29104,7611,3555,1705,1032,1485,830,1472,1437,874,949,2452,3638,29140,29184,29241,29219,29197,1432,1313,2368,1432,1964,2685,1164,1155,927,931,1573,1674,29069,29065,2147483647,64714,26,539,11887,4680,6271,57418,0,3,3,2
rest in thumbs,17:17:22.017,29109,7672,3533,1674,1015,1507,826,1458,1428,900,984,2487,3634,29153,29170,29140,29170,29157,1441,1318,2355,1423,1933,2667,1138,1164,909,940,1551,1678,29069,29083,2147483647,64722,22,543,11887,4677,6271,57416,0,3,3,2
rest in thumbs,17:17:22.195,29100,7637,3498,1656,984,1533,755,1476,1423,865,953,2434,3612,29166,29210,29175,29201,29140,1437,1313,2377,1423,1942,2619,1173,1129,979,984,1568,1656,29091,29096,2147483647,64722,23,539,11889,4671,6268,57413,0,3,3,2
rest in thumbs,17:17:22.219,29074,7624,3493,1669,988,1498,843,1507,1428,870,949,2465,3625,29144,29170,29131,29131,29140,1441,1270,2381,1437,1933,2619,1133,1164,962,940,1564,1674,28999,29122,2147483647,64718,25,534,11893,4673,6265,57417,0,3,3,2
rest in thumbs,17:17:22.394,29091,7611,3462,1678,966,1502,843,1476,1458,852,949,2474,3603,29188,29219,29206,29192,29184,1494,1331,2355,1432,1929,2614,1125,1151,966,900,1573,1643,29113,29043,2147483647,64725,27,544,11892,4671,6265,57416,0,3,3,2
rest in thumbs,17:17:22.494,29052,7602,3418,1683,988,1511,804,1472,1445,878,958,2438,3594,29148,29162,29184,29157,29162,1445,1300,2359,1415,1916,2676,1151,1155,962,940,1529,1678,29039,29056,2147483647,64730,22,538,11891,4669,6267,57415,0,3,3,2
rest in thumbs,17:17:22.518,29061,7611,3432,1678,975,1507,830,1454,1445,843,958,2469,3634,29197,29184,29175,29188,29166,1467,1335,2359,1415,1911,2658,1160,1138,984,931,1568,1656,29087,29078,2147483647,64716,27,545,11893,4668,6266,57416,0,3,3,2
rest in thumbs,17:17:22.695,29065,7606,3484,1691,1019,1511,799,1467,1419,865,971,2465,3590,29135,29197,29170,29184,29162,1458,1335,2373,1450,1937,2663,1146,1138,931,896,1520,1634,29078,29074,2147483647,64718,22,543,11894,4664,6266,57414,0,3,3,2
rest in thumbs,17:17:22.794,29083,7576,3498,1665,1015,1502,812,1450,1410,856,909,2469,3599,29241,29197,29214,29192,29184,1467,1300,2386,1419,1924,2632,1125,1168,993,909,1564,1669,29091,29118,2147483647,64721,30,545,11892,4665,6269,57415,0,3,3,2
rest in thumbs,17:17:22.895,29030,7549,3449,1656,1037,1502,817,1529,1441,883,971,2478,3607,29188,29206,29162,29153,29166,1415,1256,2386,1450,1920,2623,1155,1204,931,905,1542,1665,29135,29065,2147483647,64724,25,542,11890,4667,6272,57416,0,3,3,2
rest in thumbs,17:17:22.995,29096,7598,3432,1705,1006,1498,769,1516,1437,900,971,2478,3590,29241,29192,29201,29170,29214,1428,1344,2368,1423,1942,2636,1164,1177,940,936,1538,1674,29091,29047,2147483647,64722,21,542,11890,4667,6272,57416,0,3,3,2
rest in thumbs,17:17:23.094,29052,7567,3440,1687,1037,1498,821,1467,1450,892,971,2438,3603,29206,29144,29170,29157,29157,1467,1296,2359,1410,1959,2649,1155,1129,979,900,1551,1665,29087,29039,2147483647,64719,25,547,11890,4670,6275,57419,0,3,3,2
rest in thumbs,17:17:23.194,29065,7589,3476,1661,984,1546,760,1494,1410,861,936,2434,3621,29241,29175,29197,29197,29201,1454,1300,2381,1441,1981,2623,1142,1107,993,931,1560,1634,29069,29135,2147483647,64722,28,539,11886,4674,6280,57421,0,3,3,2
rest in thumbs,17:17:23.295,29030,7554,3462,1665,988,1498,782,1472,1450,874,953,2460,3599,29188,29144,29166,29100,29219,1410,1278,2342,1450,1937,2667,1142,1173,975,927,1577,1661,29003,29021,2147483647,64722,22,540,11883,4678,6287,57423,0,3,3,2
rest in thumbs,17:17:23.395,29039,7536,3445,1678,988,1538,795,1458,1406,896,958,2443,3634,29250,29188,29197,29166,29188,1467,1287,2390,1419,1964,2676,1146,1173,1001,931,1542,1643,29144,29021,2147483647,64718,20,545,11883,4674,6289,57423,0,3,3,2
rest in thumbs,17:17:23.494,29192,7554,3427,1656,1063,1480,812,1472,1432,914,940,2465,3603,29131,29078,29140,29083,29083,1454,1322,2373,1419,1929,2610,1155,1168,975,936,1582,1674,29021,29232,2147483647,64719,25,542,11885,4664,6291,57421,0,3,3,2
rest in thumbs,17:17:23.594,29069,7571,3423,1669,988,1498,817,1450,1423,900,953,2474,3625,29192,29236,29232,29236,29162,1441,1353,2342,1502,1924,2636,1138,1151,979,944,1568,1665,29118,29065,2147483647,64721,17,541,11883,4661,6299,57423,0,3,3,2
rest in thumbs,17:17:23.695,29061,7593,3471,1696,993,1480,777,1498,1454,887,931,2425,3616,29228,29166,29166,29162,29179,1463,1331,2381,1445,1964,2641,1133,1168,988,944,1542,1687,29069,29153,2147483647,64720,20,542,11880,4659,6306,57423,0,3,3,2
rest in thumbs,17:17:23.795,29047,7536,3410,1678,1010,1516,804,1458,1441,865,931,2465,3555,29245,29228,29210,29197,29206,1437,1300,2324,1419,1902,2619,1155,1173,975,936,1520,1621,29096,29096,2147483647,64725,22,539,11880,4654,6308,57421,0,3,3,2
rest in thumbs,17:17:23.825,29061,7567,3423,1661,971,1498,795,1467,1419,883,940,2447,3555,29192,29135,29188,29206,29192,1472,1309,2381,1467,1907,2671,1129,1173,975,914,1564,1665,29135,29078,2147483647,64719,26,547,11881,4654,6309,57423,0,3,3,2
rest in thumbs,17:17:23.917,29021,7558,3436,1669,1006,1476,812,1467,1428,870,971,2456,3603,29201,29192,29206,29250,29144,1445,1252,2329,1415,1955,2627,1151,1160,971,927,1529,1683,29140,29017,2147483647,64725,21,543,11881,4649,6309,57421,0,3,3,2
rest in thumbs,17:17:24.095,29131,7571,3467,1661,971,1507,834,1480,1410,905,949,2460,3621,29228,29170,29175,29188,29148,1463,1256,2364,1445,1964,2654,1133,1182,984,940,1564,1696,29144,29100,2147483647,64721,20,542,11883,4647,6303,57417,0,3,3,2
rest in thumbs,17:17:24.195,29030,7554,3414,1674,988,1520,769,1450,1397,900,936,2443,3563,29184,29148,29148,29188,29166,1428,1256,2386,1463,1946,2649,1151,1133,966,936,1590,1643,29100,29069,2147483647,64725,19,546,11887,4649,6294,57418,0,3,3,2
rest in thumbs,17:17:24.294,29140,7532,3427,1683,979,1472,821,1467,1397,865,953,2412,3577,29192,29144,29162,29188,29118,1476,1300,2329,1415,1942,2645,1142,1146,936,918,1529,1678,29096,29109,2147483647,64718,19,548,11890,4644,6289,57415,0,3,3,2
rest in thumbs,17:17:24.395,29109,7558,3462,1687,1041,1485,817,1507,1463,870,905,2434,3585,29223,29166,29157,29188,29170,1450,1283,2416,1428,1911,2641,1107,1182,971,918,1560,1661,29074,29087,2147483647,64718,22,541,11891,4638,6288,57412,0,3,3,2
rest in thumbs,17:17:24.495,29087,7571,3418,1652,1006,1516,812,1480,1428,848,962,2416,3603,29175,29206,29201,29219,29144,1458,1327,2399,1423,1929,2632,1116,1160,940,892,1546,1696,29113,29113,2147483647,64725,17,543,11893,4633,6284,57410,0,3,3,2
rest in thumbs,17:17:24.594,29100,7501,3405,1652,1001,1476,773,1485,1437,878,944,2452,3599,29175,29157,29157,29184,29175,1450,1305,2416,1415,1929,2649,1160,1160,962,905,1568,1647,29113,29118,2147483647,64730,21,549,11892,4633,6281,57406,0,3,3,2
rest in thumbs,17:17:24.694,29083,7519,3427,1665,984,1489,817,1489,1419,856,905,2438,3590,29241,29179,29175,29166,29197,1463,1300,2381,1454,1933,2632,1133,1151,997,958,1529,1687,29113,29135,2147483647,64726,25,546,11891,4636,6285,57408,0,3,3,2
rest in thumbs,17:17:24.795,29113,7519,3401,1700,988,1480,795,1472,1415,887,931,2438,3607,29166,29100,29153,29135,29148,1454,1331,2399,1458,1924,2627,1146,1155,953,918,1546,1683,29074,29148,2147483647,64721,17,537,11890,4639,6287,57411,0,3,3,2
rest in thumbs,17:17:24.895,29104,7527,3410,1665,971,1507,804,1472,1437,878,940,2487,3629,29241,29228,29157,29206,29210,1437,1313,2434,1441,1911,2671,1168,1173,962,918,1516,1643,29153,29157,2147483647,64731,16,542,11889,4640,6289,57412,0,3,3,2
thumbs to fist,17:17:24.918,29030,7576,3423,1665,1010,1494,830,1502,1419,905,975,2434,3643,29166,29228,29162,29157,29148,1450,1287,2425,1423,1937,2667,1138,1186,962,944,1560,1639,29078,29096,2147483647,64724,23,545,11889,4639,6289,57411,0,3,3,2
thumbs to fist,17:17:25.094,29100,7562,3432,1647,1010,1489,812,1454,1441,865,962,2416,3546,29214,29188,29166,29144,29166,1428,1291,2381,1437,1894,2667,1146,1155,944,931,1546,1647,29153,29109,2147483647,64719,21,544,11891,4634,6286,57409,0,3,3,2
thumbs to fist,17:17:25.117,29118,7580,3392,1687,979,1564,795,1516,1458,900,966,2465,3616,29184,29170,29140,29157,29210,1450,1300,2430,1432,1942,2627,1151,1155,993,896,1555,1665,29104,29109,2147483647,64726,18,548,11891,4630,6287,57407,0,3,3,2
thumbs to fist,17:17:25.217,29109,7541,3436,1691,1006,1529,799,1472,1428,870,940,2469,3625,29192,29184,29201,29153,29206,1476,1300,2430,1415,1942,2649,1160,1186,962,949,1582,1669,29140,29131,2147483647,64725,20,553,11890,4628,6288,57406,0,3,3,2
thumbs to fist,17:17:25.404,29083,7541,3449,1678,1019,1507,777,1480,1384,896,966,2443,3581,29188,29184,29074,29144,29166,1467,1322,2447,1437,1964,2627,1173,1155,993,958,1533,1643,29078,29166,2147483647,64722,21,540,11892,4623,6286,57403,0,3,3,2
thumbs to fist,17:17:25.495,29210,7536,3427,1661,997,1458,777,1511,1393,909,958,2438,3581,29122,29126,29109,29118,29126,1480,1318,2430,1476,1929,2627,1160,1182,975,905,1595,1652,29131,29192,2147483647,64724,28,547,11891,4622,6290,57406,0,3,3,2
thumbs to fist,17:17:25.517,29034,7567,3484,1691,979,1524,826,1494,1428,883,922,2456,3568,29157,29135,29148,29118,29157,1437,1296,2377,1450,1933,2614,1155,1138,971,936,1568,1674,29078,29034,2147483647,64729,17,539,11889,4624,6299,57409,0,3,3,2
thumbs to fist,17:17:25.695,29100,7554,3396,1656,984,1472,791,1472,1401,861,931,2425,3607,29206,29184,29100,29104,29179,1476,1318,2381,1397,1863,2583,1177,1173,944,900,1560,1630,29083,29166,2147483647,64721,18,539,11888,4620,6305,57411,0,3,3,2
thumbs to fist,17:17:25.794,29109,7523,3401,1683,984,1498,782,1485,1401,870,944,2452,3585,29113,29162,29100,29135,29148,1458,1291,2381,1463,1911,2632,1155,1173,914,896,1573,1652,29104,29113,2147483647,64722,16,544,11888,4614,6310,57412,0,3,3,2
thumbs to fist,17:17:25.895,29074,7549,3414,1683,984,1507,777,1489,1415,909,927,2416,3555,29157,29157,29170,29144,29192,1445,1305,2434,1437,1942,2614,1173,1138,962,944,1564,1656,29175,29104,2147483647,64717,17,549,11890,4606,6317,57415,0,3,3,2
thumbs to fist,17:17:25.995,29122,7558,3405,1683,1006,1529,830,1480,1432,878,949,2430,3581,29021,29162,29122,29153,29170,1467,1300,2412,1467,1968,2605,1160,1151,940,966,1551,1687,29118,29131,2147483647,64725,18,546,11889,4602,6328,57419,0,3,3,2
thumbs to fist,17:17:26.094,29087,7505,3388,1678,984,1516,799,1480,1406,861,944,2460,3577,29131,29214,29184,29153,29170,1472,1353,2403,1441,1916,2623,1146,1155,1001,958,1538,1639,29126,29126,2147483647,64722,16,545,11888,4595,6340,57425,0,3,3,2
thumbs to fist,17:17:26.194,29069,7554,3418,1647,966,1485,795,1489,1410,848,958,2452,3594,29039,29170,29153,29170,29157,1450,1313,2447,1445,1902,2658,1138,1168,940,905,1568,1656,29157,29083,2147483647,64720,17,540,11889,4589,6347,57428,0,3,3,2
thumbs to fist,17:17:26.295,29078,7562,3405,1656,993,1472,795,1441,1393,865,949,2465,3572,29083,29210,29135,29197,29228,1450,1296,2434,1423,1946,2619,1142,1173,993,931,1546,1661,29192,29140,2147483647,64721,24,540,11889,4588,6349,57429,0,3,3,2
thumbs to fist,17:17:26.317,29184,7532,3379,1665,988,1542,821,1485,1397,909,944,2443,3625,29008,29179,29179,29153,29148,1441,1322,2408,1410,1916,2619,1138,1142,962,914,1520,1656,29153,29118,2147483647,64725,19,541,11889,4589,6348,57430,0,3,3,2
thumbs to fist,17:17:26.494,29083,7527,3405,1687,1010,1511,791,1485,1419,931,944,2456,3625,29047,29170,29175,29140,29206,1454,1287,2421,1410,1964,2597,1146,1173,958,936,1599,1674,29091,29118,2147483647,64722,14,536,11891,4601,6340,57433,0,3,3,2
thumbs to fist,17:17:26.595,29113,7554,3440,1683,1006,1529,804,1485,1437,861,936,2421,3594,28964,29148,29166,29131,29157,1458,1322,2443,1419,1920,2619,1129,1173,949,905,1542,1652,29184,29113,2147483647,64718,14,544,11891,4613,6329,57431,0,3,3,2
thumbs to fist,17:17:26.695,29069,7580,3423,1665,988,1529,808,1524,1423,896,953,2496,3603,29074,29184,29197,29197,29210,1437,1287,2395,1441,1929,2614,1129,1155,953,936,1577,1630,29118,29122,2147483647,64726,14,541,11891,4613,6328,57429,0,3,3,2
thumbs to fist,17:17:26.719,29140,7514,3454,1652,993,1502,786,1485,1423,883,905,2456,3599,29008,29232,29197,29197,29192,1458,1331,2408,1463,1946,2645,1160,1133,944,931,1573,1639,29100,29131,2147483647,64727,17,539,11892,4608,6325,57426,0,3,3,2
thumbs to fist,17:17:26.894,29162,7541,3396,1652,988,1529,773,1485,1393,900,966,2469,3572,29083,29184,29184,29175,29201,1423,1313,2430,1410,1959,2632,1151,1164,966,931,1511,1669,29104,29118,2147483647,64721,19,548,11895,4605,6323,57426,0,3,3,2
thumbs to fist,17:17:26.995,29135,7624,3392,1674,979,1516,799,1489,1419,900,922,2478,3634,29008,29184,29153,29219,29223,1445,1322,2434,1406,1946,2605,1142,1177,944,962,1546,1661,29144,29144,2147483647,64724,20,546,11898,4601,6318,57426,0,3,3,2
thumbs to fist,17:17:27.115,29118,7510,3432,1691,1010,1507,817,1502,1423,861,966,2469,3638,29118,29210,29153,29166,29166,1472,1318,2452,1445,1977,2614,1129,1195,988,922,1564,1678,29087,29166,2147483647,64713,21,546,11900,4599,6317,57425,0,3,3,2
thumbs to fist,17:17:27.137,29135,7589,3388,1691,1015,1480,795,1480,1419,887,940,2518,3581,29184,29179,29166,29201,29144,1480,1278,2381,1415,1920,2632,1151,1155,979,975,1529,1656,29056,29153,2147483647,64724,24,544,11902,4597,6315,57427,0,3,3,2
thumbs to fist,17:17:27.294,29188,7527,3401,1669,1006,1555,826,1445,1428,834,949,2522,3577,29157,29122,29021,29087,29074,1476,1331,2447,1458,1942,2601,1160,1160,1010,922,1533,1647,28999,29206,2147483647,64722,20,544,11903,4595,6314,57425,0,3,3,2
thumbs to fist,17:17:27.395,29144,7523,3388,1683,1023,1502,817,1450,1423,856,953,2500,3643,29039,29148,29228,29206,29162,1454,1318,2373,1419,1916,2579,1142,1151,905,936,1538,1665,29126,29157,2147483647,64731,23,546,11904,4591,6312,57424,0,3,3,2
thumbs to fist,17:17:27.495,29166,7562,3401,1687,1006,1516,791,1428,1432,909,936,2469,3594,29061,29184,29131,29148,29153,1428,1335,2438,1458,1916,2614,1142,1133,975,949,1568,1639,29126,29166,2147483647,64724,20,548,11905,4588,6308,57421,0,3,3,2
thumbs to fist,17:17:27.594,29140,7549,3423,1656,1001,1516,786,1472,1445,856,949,2500,3612,29104,29201,29192,29153,29223,1485,1309,2412,1432,1955,2614,1129,1146,971,922,1582,1683,29184,29109,2147483647,64727,21,545,11904,4589,6311,57422,0,3,3,2
thumbs to fist,17:17:27.695,29100,7580,3423,1674,1001,1511,795,1467,1419,830,944,2500,3616,29043,29197,29153,29170,29210,1415,1287,2412,1423,1924,2623,1142,1177,988,949,1555,1665,29144,29025,2147483647,64720,24,545,11904,4587,6312,57421,0,3,3,2
thumbs to fist,17:17:27.717,29144,7541,3432,1696,984,1507,769,1485,1401,865,936,2518,3590,29034,29188,29188,29175,29228,1419,1300,2421,1437,1911,2605,1155,1129,958,918,1551,1669,29131,29188,2147483647,64729,21,546,11904,4585,6310,57420,0,3,3,2
thumbs to fist,17:17:27.895,29087,7532,3396,1665,988,1524,804,1472,1397,870,953,2518,3625,29100,29184,29162,29184,29192,1406,1322,2390,1437,1946,2641,1125,1155,966,936,1560,1656,29148,29083,2147483647,64729,15,548,11905,4581,6309,57418,0,3,3,2
thumbs to fist,17:17:27.994,29087,7519,3379,1665,1010,1542,834,1472,1406,874,953,2526,3607,28995,29267,29179,29201,29219,1437,1283,2447,1463,1937,2619,1142,1173,966,949,1538,1634,29104,29153,2147483647,64725,18,544,11908,4583,6308,57421,0,3,3,2
thumbs to fist,17:17:28.095,29118,7527,3401,1691,997,1511,830,1467,1393,856,962,2469,3643,28977,29197,29144,29162,29206,1450,1313,2412,1428,1920,2632,1177,1142,966,874,1524,1687,29126,29109,2147483647,64722,20,540,11908,4582,6309,57421,0,3,3,2
thumbs to fist,17:17:28.195,29122,7545,3353,1683,997,1533,808,1454,1388,878,922,2491,3629,29083,29219,29188,29184,29206,1419,1296,2403,1454,1907,2588,1129,1155,988,931,1564,1647,29126,29100,2147483647,64724,18,545,11904,4586,6314,57423,0,3,3,2
thumbs to fist,17:17:28.295,29162,7536,3396,1661,1006,1502,817,1480,1401,892,949,2500,3577,29039,29188,29175,29157,29210,1423,1340,2412,1454,1924,2597,1125,1164,984,918,1551,1691,29113,29179,2147483647,64719,10,544,11902,4589,6321,57428,0,3,3,2
thumbs to fist,17:17:28.319,29131,7541,3401,1705,971,1502,817,1502,1406,887,936,2465,3607,29140,29280,29170,29201,29232,1467,1327,2386,1445,1959,2601,1133,1129,962,953,1586,1678,29122,29153,2147483647,64719,21,544,11897,4598,6334,57436,0,3,3,2
thumbs to fist,17:17:28.495,29170,7567,3401,1678,997,1494,804,1463,1415,887,940,2518,3581,29179,29148,29047,29043,29157,1445,1274,2403,1428,1929,2579,1160,1125,993,896,1568,1634,29083,29192,2147483647,64726,18,540,11896,4595,6352,57445,0,3,3,2
thumbs to fist,17:17:28.595,29144,7505,3410,1665,1010,1511,799,1437,1410,821,918,2460,3572,29144,29236,29153,29153,29175,1445,1296,2390,1441,1924,2592,1168,1151,940,927,1568,1669,29091,29131,2147483647,64721,20,535,11894,4593,6366,57452,0,3,3,2
thumbs to fist,17:17:28.694,29184,7527,3388,1674,984,1498,782,1428,1437,852,909,2482,3616,29109,29170,29170,29157,29179,1432,1327,2408,1445,1916,2623,1186,1146,966,878,1542,1674,29144,29166,2147483647,64723,14,544,11894,4590,6376,57458,0,3,3,2
thumbs to fist,17:17:28.795,29162,7488,3361,1709,979,1502,791,1511,1419,905,953,2513,3550,29100,29175,29170,29170,29214,1476,1318,2416,1419,1937,2619,1168,1160,892,918,1555,1647,29104,29140,2147483647,64718,20,543,11898,4601,6380,57474,0,3,3,2
thumbs to fist,17:17:28.895,29162,7541,3375,1683,993,1524,804,1458,1432,883,958,2509,3537,29043,29170,29223,29219,29206,1454,1322,2408,1437,1916,2636,1168,1133,971,878,1555,1617,29131,29091,2147483647,64719,21,539,11903,4599,6383,57483,0,3,3,2
thumbs to fist,17:17:28.995,29126,7501,3401,1683,975,1524,808,1498,1379,870,962,2474,3647,29096,29157,29157,29175,29201,1476,1313,2416,1437,1933,2610,1164,1182,966,905,1608,1713,29162,29153,2147483647,64722,21,545,11906,4594,6390,57490,0,3,3,2
thumbs to fist,17:17:29.094,29100,7510,3396,1683,966,1502,817,1476,1397,896,958,2482,3546,29096,29179,29201,29197,29214,1467,1287,2416,1463,1955,2592,1155,1138,953,931,1546,1678,29113,29109,2147483647,64729,17,539,11905,4593,6392,57490,0,3,3,2
thumbs to fist,17:17:29.195,29140,7501,3366,1643,966,1542,799,1485,1410,848,979,2500,3585,29091,29118,29153,29175,29170,1463,1296,2403,1415,1946,2583,1177,1177,931,940,1542,1652,29104,29192,2147483647,64726,25,536,11909,4588,6386,57487,0,3,3,2
thumbs to fist,17:17:29.295,29126,7519,3414,1713,1015,1480,777,1423,1419,905,927,2478,3603,29140,29210,29192,29184,29192,1458,1331,2430,1445,1933,2557,1138,1164,984,949,1542,1669,29236,29113,2147483647,64723,21,541,11914,4592,6376,57490,0,3,3,2
thumbs to fist,17:17:29.319,29140,7532,3427,1687,1001,1533,791,1450,1415,878,940,2482,3682,29184,29197,29126,29175,29179,1423,1309,2408,1445,1924,2570,1111,1129,971,927,1564,1687,29175,29179,2147483647,64714,20,547,11923,4599,6362,57495,0,3,3,2
thumbs to fist,17:17:29.494,29188,7549,3392,1656,988,1511,821,1472,1428,874,962,2456,3590,29140,29162,29175,29214,29188,1463,1291,2430,1432,1916,2627,1164,1173,966,927,1573,1639,29131,29219,2147483647,64720,14,540,11923,4599,6358,57491,0,3,3,2
thumbs to fist,17:17:29.595,29153,7549,3480,1713,1019,1516,782,1472,1428,874,940,2478,3585,29109,29104,29131,29144,29148,1463,1296,2373,1419,1942,2619,1120,1129,966,909,1568,1709,29122,29184,2147483647,64723,22,539,11922,4603,6355,57492,0,3,3,2
thumbs to fist,17:17:29.695,29188,7554,3436,1678,979,1507,821,1502,1432,830,949,2469,3594,29126,29170,29206,29179,29210,1472,1327,2403,1441,1933,2566,1168,1138,984,962,1604,1617,29153,29153,2147483647,64723,26,538,11924,4601,6353,57491,0,3,3,2
thumbs to fist,17:17:29.719,29175,7606,3379,1705,1001,1502,834,1520,1406,856,962,2491,3590,29131,29126,29162,29166,29131,1450,1331,2403,1423,1942,2566,1164,1164,997,940,1551,1647,29148,29144,2147483647,64724,25,539,11931,4601,6346,57496,0,3,3,2
thumbs to fist,17:17:29.819,29210,7514,3401,1718,984,1502,830,1445,1441,878,944,2491,3629,29157,29166,29214,29170,29166,1463,1296,2386,1467,1929,2623,1129,1138,997,966,1538,1687,29135,29184,2147483647,64718,20,539,11938,4598,6337,57498,0,3,3,2
thumbs to fist,17:17:29.918,29144,7545,3388,1678,1010,1511,764,1419,1366,861,944,2518,3621,29118,29078,29162,29162,29069,1406,1296,2408,1454,1902,2588,1173,1138,949,900,1529,1661,29096,29166,2147483647,64723,19,545,11942,4587,6330,57491,0,3,3,2
rest in fist,17:17:30.017,29140,7593,3467,1696,1001,1524,799,1489,1432,887,927,2509,3612,29162,29157,29228,29219,29109,1476,1313,2395,1458,1885,2649,1146,1146,958,940,1546,1687,29131,29223,2147483647,64730,22,548,11941,4578,6327,57483,0,3,3,2
rest in fist,17:17:30.194,29184,7589,3493,1700,997,1542,812,1458,1401,843,975,2434,3599,29122,29126,29184,29188,29148,1445,1305,2390,1476,1942,2649,1129,1155,975,944,1511,1683,29135,29100,2147483647,64722,23,546,11942,4573,6324,57478,0,3,3,2
rest in fist,17:17:30.295,29109,7558,3458,1691,1032,1538,804,1450,1375,878,931,2430,3594,29135,29074,29188,29223,29008,1441,1256,2416,1423,1920,2680,1160,1177,984,914,1516,1652,29131,29188,2147483647,64726,22,553,11945,4568,6317,57475,0,3,3,2
rest in fist,17:17:30.395,29162,7615,3401,1665,975,1551,795,1437,1393,874,949,2474,3660,29126,29140,29175,29153,29008,1450,1318,2416,1454,1924,2627,1168,1151,966,918,1529,1652,29166,29184,2147483647,64725,22,546,11947,4565,6314,57474,0,3,3,2
rest in fist,17:17:30.495,29153,7580,3427,1705,997,1480,777,1502,1388,896,953,2452,3612,29113,28981,29135,29162,28964,1450,1322,2412,1410,1907,2645,1146,1142,962,936,1511,1665,29144,29144,2147483647,64725,18,548,11942,4562,6320,57469,0,3,3,2
rest in fist,17:17:30.594,29162,7545,3440,1678,958,1520,799,1489,1375,892,953,2500,3638,29096,29052,29140,29219,29003,1485,1322,2386,1445,1894,2645,1195,1168,958,975,1542,1661,29140,29148,2147483647,64729,18,548,11940,4559,6322,57466,0,3,3,2
rest in fist,17:17:30.695,29166,7549,3436,1687,984,1502,834,1454,1366,874,971,2500,3638,29113,29104,29184,29192,29131,1467,1331,2381,1423,1902,2632,1155,1182,958,958,1560,1674,29131,29109,2147483647,64722,17,543,11941,4555,6321,57464,0,3,3,2
rest in fist,17:17:30.806,29166,7562,3423,1709,984,1507,804,1467,1423,887,922,2500,3612,29069,28959,29144,29192,29017,1476,1309,2381,1419,1907,2623,1168,1160,966,918,1560,1669,29153,29228,2147483647,64721,18,543,11936,4559,6330,57466,0,3,3,2
rest in fist,17:17:30.970,29162,7501,3401,1727,975,1480,799,1445,1401,887,931,2474,3687,29096,29210,29096,29135,29214,1485,1318,2403,1467,1942,2601,1138,1160,962,958,1551,1696,29175,29157,2147483647,64723,14,549,11925,4569,6349,57471,0,3,3,2
rest in fist,17:17:30.981,29166,7532,3445,1683,962,1533,791,1480,1406,878,958,2452,3656,29065,28959,29210,29148,28986,1458,1327,2377,1450,1929,2614,1138,1151,988,936,1498,1683,29122,29197,2147483647,64724,11,544,11918,4574,6362,57474,0,3,3,2
rest in fist,17:17:31.048,29157,7571,3410,1696,966,1498,791,1502,1415,905,971,2478,3638,29122,29126,29162,29131,29131,1463,1322,2373,1419,1946,2623,1177,1138,966,958,1538,1718,29206,29135,2147483647,64722,19,544,11917,4580,6369,57482,0,3,3,2
rest in fist,17:17:31.205,29184,7545,3454,1700,979,1507,782,1467,1437,861,940,2487,3673,29131,29061,29170,29188,29052,1502,1335,2359,1467,1964,2627,1177,1125,958,922,1573,1643,29148,29210,2147483647,64723,15,543,11921,4581,6374,57491,0,3,3,2
rest in fist,17:17:31.287,29140,7567,3454,1696,971,1507,791,1489,1415,874,949,2474,3660,29131,29148,29074,29140,29166,1485,1327,2390,1463,1911,2614,1173,1146,936,927,1551,1683,29140,29148,2147483647,64718,19,543,11927,4582,6373,57500,0,3,3,2
rest in fist,17:17:31.395,29126,7541,3410,1696,971,1546,777,1450,1454,896,940,2535,3634,29162,29131,29083,29113,29166,1432,1309,2355,1454,1946,2632,1155,1168,984,940,1533,1691,29223,29135,2147483647,64718,22,544,11925,4584,6379,57502,0,3,3,2
rest in fist,17:17:31.495,29170,7584,3445,1683,940,1498,808,1472,1454,852,971,2491,3665,29140,29069,29166,29170,29113,1441,1283,2337,1437,1951,2645,1182,1129,949,931,1529,1683,29140,29162,2147483647,64720,16,539,11924,4584,6382,57505,0,3,3,2
rest in fist,17:17:31.605,29039,7558,3396,1687,993,1511,791,1445,1406,887,931,2496,3625,29179,29096,29118,29043,29131,1458,1318,2342,1445,1920,2645,1160,1146,936,927,1546,1683,29157,29061,2147483647,64714,21,540,11923,4591,6391,57514,0,3,3,2
rest in fist,17:17:31.714,29122,7519,3405,1713,966,1538,821,1494,1401,830,944,2482,3656,29056,29153,29153,29179,29175,1432,1313,2381,1397,1885,2619,1142,1151,949,909,1546,1683,29148,29135,2147483647,64721,20,539,11921,4589,6402,57518,0,3,3,2
rest in fist,17:17:31.795,29078,7536,3423,1691,979,1538,786,1472,1393,856,944,2474,3656,28977,29170,29184,29135,29135,1458,1291,2381,1437,1946,2605,1173,1160,988,909,1546,1687,29083,29065,2147483647,64718,16,538,11916,4587,6417,57521,0,3,3,2
rest in fist,17:17:31.820,29157,7562,3462,1722,988,1568,830,1511,1406,878,936,2460,3629,29061,29083,29170,29179,29113,1419,1300,2381,1432,1902,2645,1146,1177,971,909,1551,1665,29100,29157,2147483647,64720,21,535,11913,4590,6425,57525,0,3,3,2
rest in fist,17:17:31.995,29118,7554,3432,1691,1010,1507,799,1458,1428,834,953,2518,3643,29197,29206,29166,29166,29201,1467,1265,2329,1415,1885,2685,1151,1142,949,922,1546,1661,29135,29184,2147483647,64727,19,532,11910,4596,6427,57527,0,3,3,2
rest in fist,17:17:32.114,29153,7554,3423,1665,984,1498,764,1516,1428,914,918,2447,3638,29083,28981,29206,29197,29012,1441,1318,2329,1445,1898,2605,1155,1151,958,883,1560,1656,29118,29135,2147483647,64717,18,537,11913,4612,6414,57529,0,3,3,2
rest in fist,17:17:32.195,29153,7571,3458,1722,988,1516,808,1485,1419,878,971,2496,3651,29166,29061,28981,29017,29052,1476,1305,2390,1432,1911,2623,1146,1155,971,962,1568,1669,29162,29148,2147483647,64713,19,533,11917,4643,6398,57541,0,3,3,2
rest in fist,17:17:32.295,29131,7580,3476,1678,971,1498,769,1489,1397,830,940,2487,3673,29078,29140,29192,29201,28999,1450,1313,2355,1415,1959,2592,1146,1142,918,944,1542,1674,29197,29188,2147483647,64717,17,532,11914,4650,6401,57543,0,3,3,2
rest in fist,17:17:32.395,29179,7532,3432,1709,997,1520,791,1463,1397,870,971,2496,3629,29069,29030,29192,29263,29061,1467,1327,2368,1415,1911,2605,1120,1146,966,914,1511,1665,29140,29135,2147483647,64714,25,531,11911,4655,6407,57545,0,3,3,2
rest in fist,17:17:32.495,29118,7527,3432,1696,1037,1476,791,1454,1445,861,931,2496,3634,29083,28986,29201,29245,29113,1454,1300,2390,1441,1929,2632,1151,1168,962,914,1529,1665,29131,29179,2147483647,64713,22,526,11911,4660,6410,57550,0,3,3,2
rest in fist,17:17:32.595,29113,7598,3414,1652,979,1529,773,1454,1423,808,962,2487,3665,29113,29122,29206,29254,29096,1494,1287,2403,1432,1885,2610,1190,1146,914,905,1533,1665,29214,29157,2147483647,64716,22,535,11911,4660,6410,57550,0,3,3,2
rest in fist,17:17:32.695,29148,7549,3458,1674,966,1498,786,1489,1397,843,918,2482,3629,29061,29008,29197,29188,29087,1415,1283,2355,1454,1916,2645,1182,1129,971,931,1538,1652,29083,29162,2147483647,64720,22,534,11911,4659,6408,57549,0,3,3,2
rest in fist,17:17:32.795,29170,7611,3405,1674,1001,1516,799,1489,1415,883,984,2452,3660,29104,29140,29232,29219,29175,1472,1278,2373,1419,1959,2641,1151,1146,962,922,1520,1665,29118,29192,2147483647,64717,23,532,11913,4657,6405,57548,0,3,3,2
rest in fist,17:17:32.895,29197,7536,3370,1691,971,1520,769,1458,1419,865,949,2518,3612,29083,29131,29201,29188,29113,1463,1313,2368,1432,1946,2610,1164,1133,975,918,1546,1683,29175,29162,2147483647,64721,26,534,11917,4652,6392,57542,0,3,3,2
rest in fist,17:17:32.921,29166,7519,3432,1661,1019,1520,773,1511,1415,883,949,2491,3634,29096,29104,29188,29232,29219,1467,1318,2381,1423,1898,2627,1138,1155,1010,949,1529,1669,29135,29170,2147483647,64723,21,537,11925,4641,6376,57533,0,3,3,2
rest in fist,17:17:33.095,29175,7562,3458,1683,997,1533,795,1467,1393,861,936,2496,3638,29069,29135,29210,29219,29113,1472,1291,2355,1428,1911,2632,1155,1120,966,936,1573,1665,29122,29197,2147483647,64715,17,543,11934,4624,6358,57523,0,3,3,2
rest in fist,17:17:33.123,29184,7558,3427,1669,984,1546,834,1472,1397,883,940,2474,3625,29122,29126,29210,29214,29179,1480,1327,2368,1410,1902,2649,1173,1146,962,922,1524,1674,29109,29122,2147483647,64727,13,546,11937,4604,6346,57506,0,3,3,2
rest in fist,17:17:33.218,29135,7514,3414,1705,997,1529,812,1445,1388,843,944,2416,3638,29113,29083,29166,29091,29078,1472,1322,2373,1437,1929,2623,1155,1155,940,927,1560,1652,29100,29148,2147483647,64729,15,548,11935,4582,6342,57488,0,3,3,2
rest in fist,17:17:33.395,29157,7571,3440,1709,1015,1507,808,1472,1384,870,927,2491,3634,29113,29126,29175,29250,29157,1428,1322,2368,1371,1898,2627,1120,1129,944,918,1546,1639,29118,29118,2147483647,64725,19,557,11936,4566,6340,57478,0,3,3,2
rest in fist,17:17:33.495,29184,7598,3445,1687,997,1467,760,1489,1410,918,900,2496,3629,29096,29113,29157,29148,29091,1432,1309,2381,1454,1933,2614,1177,1142,958,944,1542,1683,29131,29148,2147483647,64725,13,549,11940,4557,6336,57477,0,3,3,2
rest in fist,17:17:33.595,29153,7549,3423,1665,984,1498,786,1502,1379,861,944,2496,3577,29083,29100,29166,29153,29069,1463,1291,2355,1445,1933,2610,1151,1133,953,927,1573,1700,29100,29148,2147483647,64731,13,546,11937,4549,6340,57470,0,3,3,2
rest in fist,17:17:33.695,29162,7580,3432,1647,979,1533,791,1454,1397,856,927,2509,3625,29078,29140,29188,29179,29122,1476,1313,2390,1450,1894,2627,1177,1168,988,971,1564,1683,29126,29184,2147483647,64722,17,547,11930,4551,6351,57470,0,3,3,2
rest in fist,17:17:33.795,29157,7554,3436,1687,993,1498,786,1472,1401,865,940,2531,3673,29091,29096,29140,29144,29140,1437,1318,2381,1445,1911,2588,1168,1142,979,940,1551,1630,29074,29170,2147483647,64725,9,540,11928,4558,6363,57480,0,3,3,2
rest in fist,17:17:33.895,29144,7554,3414,1678,993,1529,812,1463,1397,878,909,2487,3625,29069,29109,29188,29228,29162,1450,1291,2381,1441,1951,2583,1155,1133,971,900,1524,1691,29153,29131,2147483647,64717,15,547,11933,4567,6376,57504,0,3,3,2
rest in fist,17:17:33.995,29175,7541,3476,1696,997,1511,795,1516,1393,865,944,2465,3638,29122,29113,29144,29083,29131,1450,1287,2368,1463,1968,2627,1133,1182,975,949,1555,1652,29096,29122,2147483647,64715,15,534,11929,4577,6400,57521,0,3,3,2
rest in fist,17:17:34.105,29140,7584,3436,1683,993,1529,826,1472,1388,870,927,2474,3607,29065,29166,29039,29096,29162,1441,1309,2346,1415,1924,2579,1173,1138,975,966,1516,1643,29074,29162,2147483647,64728,15,529,11910,4585,6427,57520,0,3,3,2
rest in fist,17:17:34.195,29100,7571,3423,1674,953,1524,799,1511,1366,878,966,2474,3669,29047,29175,29175,29131,29153,1467,1300,2381,1428,1924,2601,1164,1186,909,940,1546,1665,28973,29153,2147483647,64718,14,538,11908,4600,6440,57535,0,3,3,2
rest in fist,17:17:34.217,29197,7532,3427,1683,1001,1516,795,1445,1393,834,949,2474,3616,29126,29153,29126,29126,29131,1423,1287,2359,1415,1942,2623,1177,1151,958,944,1551,1669,29122,29188,2147483647,64711,10,530,11912,4604,6443,57547,0,3,3,2
rest in fist,17:17:34.395,29188,7567,3410,1661,966,1520,839,1480,1401,892,940,2496,3665,29113,29113,29096,29096,29104,1463,1327,2320,1458,1916,2654,1177,1160,958,944,1538,1678,29074,29175,2147483647,64716,16,539,11914,4594,6445,57546,0,3,3,2
rest in fist,17:17:34.495,29197,7541,3427,1705,993,1524,795,1494,1388,852,949,2474,3616,29109,29078,29039,29003,29096,1507,1270,2386,1432,1894,2623,1212,1133,931,944,1538,1661,29179,29210,2147483647,64720,10,535,11915,4580,6448,57542,0,3,3,2
rest in fist,17:17:34.523,29153,7545,3432,1661,984,1524,777,1450,1393,865,949,2469,3643,29083,29109,29131,29083,29052,1450,1291,2381,1441,1907,2597,1177,1089,962,949,1560,1687,29113,29228,2147483647,64723,12,534,11914,4555,6450,57527,0,3,3,2
rest in fist,17:17:34.695,29184,7571,3423,1683,997,1533,812,1476,1423,892,953,2465,3638,29131,29140,29021,29034,29104,1463,1318,2351,1415,1959,2601,1138,1164,971,940,1542,1674,29170,29219,2147483647,64720,16,540,11914,4548,6447,57520,0,3,3,2
rest in fist,17:17:34.795,29241,7514,3458,1696,1001,1546,817,1516,1410,856,936,2491,3673,29100,29074,29003,29047,29012,1458,1300,2381,1428,1920,2636,1142,1138,979,944,1542,1669,29122,29162,2147483647,64711,8,531,11914,4537,6441,57509,0,3,3,2
rest in fist,17:17:34.895,29201,7514,3405,1656,1037,1538,791,1454,1410,887,949,2509,3634,29113,29131,29030,29017,29118,1467,1278,2351,1406,1876,2566,1146,1146,1001,914,1568,1687,29135,29258,2147483647,64712,65534,538,11909,4532,6440,57498,0,3,3,2
rest in fist,17:17:34.923,29197,7541,3418,1683,975,1516,773,1445,1401,892,944,2500,3625,29104,29087,29113,29104,29078,1445,1265,2373,1432,1880,2619,1177,1142,979,936,1568,1696,29140,29179,2147483647,64723,65534,530,11898,4533,6433,57478,0,3,3,2
fist to point,17:17:35.095,29166,7576,3449,1678,997,1502,812,1463,1401,870,962,2496,3612,29144,29087,29078,29043,29083,1450,1287,2425,1445,1924,2588,1138,1164,971,922,1551,1652,29170,29184,2147483647,64729,65529,547,11895,4524,6430,57467,0,3,3,2
fist to point,17:17:35.195,29258,7541,3440,1740,1015,1542,817,1467,1406,887,949,2474,3651,29113,29113,29131,29096,29078,1415,1313,2333,1467,1902,2597,1164,1151,988,936,1520,1687,29056,29236,2147483647,64727,11,544,11904,4495,6431,57464,0,3,3,2
fist to point,17:17:35.295,29144,7549,3440,1691,997,1498,791,1476,1428,878,940,2491,3599,29096,29104,28999,29021,29122,1467,1296,2342,1419,1911,2623,1173,1155,949,944,1529,1687,29100,29170,2147483647,64723,15,537,11916,4468,6442,57476,0,3,3,2
fist to point,17:17:35.405,29254,7606,3467,1722,979,1520,821,1485,1419,874,931,2500,3647,29109,29069,29074,29061,29056,1437,1300,2368,1415,1902,2605,1155,1138,966,922,1555,1661,29236,29250,2147483647,64725,12,544,11919,4465,6442,57477,0,3,3,2
fist to point,17:17:35.495,29175,7558,3396,1656,1001,1524,799,1472,1406,892,966,2509,3621,29175,29144,29175,29197,29166,1467,1322,2355,1419,1885,2605,1151,1146,962,922,1582,1656,29118,29153,2147483647,64729,6,541,11916,4475,6429,57468,0,3,3,2
fist to point,17:17:35.595,29241,7532,3436,1678,1010,1542,804,1480,1432,892,936,2500,3629,29144,29122,29056,29056,29144,1458,1291,2351,1441,1920,2627,1151,1138,962,962,1520,1687,29069,29236,2147483647,64724,0,540,11913,4482,6420,57461,0,3,3,2
fist to point,17:17:35.695,29219,7558,3414,1683,966,1498,812,1445,1432,848,936,2491,3612,29065,29104,29153,29074,29113,1423,1287,2359,1423,1911,2601,1133,1155,936,896,1555,1656,29214,29245,2147483647,64719,3,548,11911,4484,6414,57454,0,3,3,2
fist to point,17:17:35.794,29228,7558,3423,1678,993,1533,799,1458,1410,870,922,2509,3634,29201,29245,29206,29192,29210,1437,1335,2438,1472,1907,2597,1151,1142,988,914,1546,1683,28841,29170,2147483647,64717,2,545,11917,4470,6415,57456,0,3,3,2
fist to point,17:17:35.827,29188,7562,3432,1678,1023,1533,791,1419,1419,874,927,2460,3643,29074,29074,28990,28964,29047,1458,1322,2386,1445,1911,2623,1142,1155,949,927,1551,1656,29074,29206,2147483647,64730,7,534,11919,4463,6416,57456,0,3,3,2
fist to point,17:17:35.995,29184,7584,3436,1700,1028,1498,791,1480,1388,874,940,2500,3621,29069,29087,29083,29144,29118,1467,1309,2416,1419,1889,2623,1160,1125,997,918,1520,1669,29157,29184,2147483647,64723,6,545,11922,4465,6411,57458,0,3,3,2
fist to point,17:17:36.095,29091,7549,3396,1700,979,1494,843,1458,1397,909,914,2504,3621,29074,29078,29017,28999,29122,1450,1335,2425,1437,1902,2605,1133,1107,940,922,1546,1656,29166,29109,2147483647,64716,7,542,11929,4466,6403,57463,0,3,3,2
fist to point,17:17:36.195,29153,7479,3414,1691,988,1494,821,1454,1410,883,979,2500,3607,29122,29148,29148,29113,29148,1441,1300,2412,1419,1942,2614,1168,1146,988,887,1538,1683,29162,29175,2147483647,64718,5,543,11930,4471,6404,57467,0,3,3,2
fist to point,17:17:36.295,29162,7527,3427,1647,1028,1480,795,1472,1397,887,931,2522,3665,29074,29140,28999,29003,29096,1445,1291,2364,1423,1902,2601,1168,1146,936,936,1533,1709,29175,29210,2147483647,64725,12,548,11923,4484,6404,57463,0,3,3,2
fist to point,17:17:36.320,29148,7514,3418,1656,1015,1560,808,1489,1458,878,936,2487,3656,29153,29096,29017,29012,29118,1450,1322,2403,1450,1885,2636,1160,1133,958,936,1542,1683,29109,29162,2147483647,64722,2,545,11920,4489,6402,57460,0,3,3,2
fist to point,17:17:36.495,29179,7541,3445,1691,971,1568,808,1489,1419,874,979,2531,3621,29065,29065,28999,29065,29043,1476,1305,2421,1432,1951,2619,1129,1160,971,914,1573,1691,29179,29153,2147483647,64719,11,538,11920,4501,6403,57468,0,3,3,2
fist to point,17:17:36.521,29157,7620,3449,1665,1019,1560,804,1489,1410,900,949,2487,3612,29109,29122,29034,29087,29025,1463,1300,2329,1454,1907,2636,1151,1138,962,953,1511,1705,29087,29122,2147483647,64720,4,519,11896,4544,6447,57491,0,3,3,2
fist to point,17:17:36.715,29157,7571,3423,1691,997,1538,804,1480,1454,843,944,2513,3629,29056,29104,29021,29078,29012,1467,1300,2351,1445,1858,2663,1133,1155,958,936,1502,1674,29091,29148,2147483647,64716,16,531,11877,4572,6468,57496,0,3,3,2
fist to point,17:17:36.795,29157,7659,3502,1705,975,1520,799,1485,1437,874,949,2518,3647,29113,29078,29135,29206,29043,1498,1265,2408,1432,1911,2658,1155,1160,931,949,1564,1647,29126,29170,2147483647,64708,9,527,11863,4591,6494,57508,0,3,3,2
fist to point,17:17:36.895,29175,7659,3484,1652,1028,1489,782,1498,1432,865,940,2496,3607,29118,29109,28977,28959,29087,1428,1296,2395,1454,1880,2667,1168,1146,944,927,1573,1647,29096,29175,2147483647,64709,12,529,11859,4593,6504,57511,0,3,3,2
fist to point,17:17:36.995,29118,7611,3454,1687,993,1529,760,1502,1428,918,922,2487,3669,29184,29104,29122,29074,29131,1441,1287,2377,1406,1902,2663,1151,1107,1010,914,1546,1669,29184,29135,2147483647,64715,6,528,11862,4594,6507,57518,0,3,3,2
fist to point,17:17:37.095,29192,7637,3524,1669,953,1542,786,1489,1441,874,927,2478,3638,29100,29069,29131,29087,29065,1441,1278,2399,1437,1920,2663,1173,1120,984,918,1564,1634,29170,29140,2147483647,64715,10,527,11865,4582,6515,57523,0,3,3,2
fist to point,17:17:37.195,29157,7593,3462,1696,979,1568,795,1454,1432,848,940,2474,3599,29148,29087,29148,29153,29096,1428,1270,2386,1419,1902,2627,1160,1107,944,936,1564,1687,29210,29140,2147483647,64706,19,521,11870,4574,6522,57531,0,3,3,2
fist to point,17:17:37.222,29214,7606,3440,1683,1015,1529,791,1533,1432,874,931,2509,3612,29148,29043,29131,29140,29056,1467,1340,2368,1454,1916,2641,1195,1155,1019,944,1564,1683,29126,29192,2147483647,64715,8,522,11873,4570,6531,57540,0,3,3,2
fist to point,17:17:37.395,29157,7541,3436,1700,1019,1516,782,1485,1423,834,984,2460,3616,29170,29118,29179,29144,29148,1472,1305,2368,1437,1894,2619,1151,1151,993,905,1533,1652,29144,29166,2147483647,64714,0,526,11871,4568,6540,57544,0,3,3,2
fist to point,17:17:37.495,29210,7593,3440,1735,988,1546,799,1507,1419,870,962,2460,3607,29148,29052,29113,29131,29074,1428,1300,2368,1441,1880,2641,1146,1155,958,936,1542,1691,29096,29228,2147483647,64712,13,516,11871,4567,6541,57544,0,3,3,2
fist to point,17:17:37.526,29210,7615,3418,1727,975,1533,834,1529,1450,905,953,2491,3599,29188,29144,29175,29148,29109,1445,1313,2390,1428,1959,2641,1177,1138,988,953,1555,1683,29069,29206,2147483647,64724,9,521,11872,4566,6539,57543,0,3,3,2
fist to point,17:17:37.623,29157,7602,3432,1700,997,1507,808,1511,1450,861,944,2469,3625,29126,29069,29140,29135,29065,1472,1274,2364,1419,1920,2623,1177,1129,958,900,1546,1678,29118,29091,2147483647,64714,16,527,11878,4573,6524,57544,0,3,3,2
fist to point,17:17:37.795,29131,7615,3440,1669,1010,1542,791,1516,1423,878,953,2496,3634,29206,29104,29100,29166,29131,1467,1371,2390,1428,1911,2645,1151,1151,905,914,1582,1683,29131,29140,2147483647,64717,10,530,11882,4581,6508,57542,0,3,3,2
fist to point,17:17:37.895,29175,7624,3471,1678,958,1533,812,1560,1441,852,958,2575,3634,29179,29091,29104,29113,29109,1432,1300,2438,1458,1907,2627,1155,1155,953,940,1573,1669,29069,29140,2147483647,64711,4,523,11883,4579,6500,57535,0,3,3,2
fist to point,17:17:38.005,29148,7584,3484,1700,997,1502,848,1612,1428,892,958,2496,3621,29135,29074,29109,29113,29074,1441,1344,2377,1432,1898,2645,1146,1103,971,988,1560,1656,29113,29140,2147483647,64713,14,526,11893,4581,6481,57535,0,3,3,2
fist to point,17:17:38.095,28959,7611,3454,1678,1032,1520,812,1568,1428,896,953,2504,3629,29162,29201,29153,29184,29201,1450,1305,2399,1437,1894,2632,1151,1138,962,944,1516,1665,29047,29126,2147483647,64719,14,528,11896,4586,6470,57534,0,3,3,2
fist to point,17:17:38.195,29109,7571,3462,1669,997,1538,791,1595,1401,865,922,2491,3594,29096,29047,29126,29118,29069,1432,1318,2386,1423,1911,2649,1168,1160,966,958,1511,1700,29153,29109,2147483647,64719,18,526,11895,4592,6461,57529,0,3,3,2
fist to point,17:17:38.295,29197,7606,3449,1700,1006,1507,791,1599,1419,852,988,2531,3643,29179,29118,29109,29162,29131,1437,1322,2430,1454,1933,2632,1125,1155,940,918,1538,1647,29148,29126,2147483647,64720,17,535,11892,4603,6451,57521,0,3,3,2
fist to point,17:17:38.396,29162,7615,3502,1696,1010,1520,817,1617,1428,892,979,2509,3691,29162,29100,29118,29135,29100,1445,1313,2447,1415,1933,2636,1160,1173,953,971,1599,1696,29126,29201,2147483647,64716,19,537,11890,4608,6446,57518,0,3,3,2
fist to point,17:17:38.495,29166,7571,3484,1687,984,1529,769,1639,1445,909,936,2535,3651,29175,29078,29135,29144,29104,1489,1313,2390,1415,1907,2654,1168,1151,984,940,1542,1691,29109,29184,2147483647,64725,17,539,11890,4611,6440,57514,0,3,3,2
fist to point,17:17:38.595,29104,7589,3471,1634,1019,1516,821,1617,1454,878,949,2535,3682,29109,29100,29104,29100,29047,1454,1270,2381,1454,1911,2627,1168,1151,914,900,1533,1656,29148,29118,2147483647,64720,12,535,11898,4600,6426,57509,0,3,3,2
fist to point,17:17:38.622,29162,7611,3480,1753,979,1524,782,1621,1441,892,962,2548,3656,29162,29113,29087,29109,29109,1476,1318,2434,1415,1946,2627,1173,1146,971,940,1538,1661,29192,29206,2147483647,64716,17,537,11903,4591,6416,57504,0,3,3,2
fist to point,17:17:38.795,29153,7554,3418,1718,984,1511,804,1647,1463,883,975,2500,3673,29166,29043,29087,29148,29113,1467,1278,2403,1463,1951,2627,1173,1168,949,887,1564,1691,29091,29140,2147483647,64712,16,532,11911,4593,6405,57510,0,3,3,2
fist to point,17:17:38.905,29210,7571,3454,1669,984,1516,786,1630,1441,870,944,2504,3629,29214,29096,29131,29104,29091,1489,1296,2386,1437,1946,2601,1164,1138,988,944,1551,1674,29192,29192,2147483647,64722,13,539,11916,4588,6397,57507,0,3,3,2
fist to point,17:17:38.928,29109,7558,3458,1700,975,1516,782,1612,1441,892,931,2540,3603,29162,29219,29113,29126,29166,1467,1287,2412,1458,1946,2614,1146,1125,979,953,1494,1674,29012,29008,2147483647,64725,21,539,11919,4581,6392,57503,0,3,3,2
fist to point,17:17:39.095,29175,7593,3454,1722,1015,1568,812,1612,1467,887,962,2513,3638,29122,29083,29083,29087,29100,1467,1309,2403,1410,1951,2663,1168,1155,984,936,1538,1652,29104,29122,2147483647,64722,18,539,11923,4578,6386,57504,0,3,3,2
fist to point,17:17:39.205,29144,7554,3471,1691,1045,1520,808,1599,1423,914,971,2526,3638,29140,29109,29030,29083,29061,1454,1331,2403,1428,1920,2654,1160,1146,979,958,1551,1647,29157,29148,2147483647,64717,16,544,11928,4580,6384,57509,0,3,3,2
fist to point,17:17:39.305,29170,7611,3462,1669,971,1564,791,1612,1445,870,984,2531,3651,29210,29162,29148,29162,29188,1450,1318,2390,1450,1929,2619,1177,1186,997,966,1577,1674,29039,29069,2147483647,64727,18,545,11923,4582,6394,57511,0,3,3,2
fist to point,17:17:39.331,29061,7593,3436,1661,1006,1546,812,1634,1445,878,971,2504,3643,29170,29192,29109,29175,29188,1463,1300,2443,1423,1924,2658,1186,1182,979,979,1564,1674,29074,29061,2147483647,64724,18,540,11918,4585,6404,57513,0,3,3,2
fist to point,17:17:39.496,29118,7602,3489,1678,1032,1529,777,1608,1472,861,922,2487,3647,29219,29162,29096,29091,29047,1467,1305,2403,1437,1964,2698,1177,1138,993,931,1502,1669,29096,29184,2147483647,64725,21,542,11921,4587,6407,57521,0,3,3,2
fist to point,17:17:39.595,29100,7593,3471,1687,993,1546,826,1568,1450,865,896,2544,3634,29162,29091,29091,29069,29083,1472,1291,2381,1450,1916,2676,1142,1138,979,958,1568,1691,29109,29144,2147483647,64726,20,548,11924,4595,6411,57534,0,3,3,2
fist to point,17:17:39.695,29192,7571,3502,1696,979,1524,769,1625,1494,909,979,2526,3625,29201,29104,29052,29065,29069,1450,1300,2403,1441,1907,2649,1177,1116,975,936,1546,1700,29091,29131,2147483647,64720,21,534,11922,4596,6419,57537,0,3,3,2
fist to point,17:17:39.795,29197,7598,3449,1652,1015,1529,786,1604,1498,883,936,2566,3665,29144,29100,29091,29047,29021,1432,1291,2381,1432,1951,2649,1155,1138,993,909,1538,1656,29126,29162,2147483647,64720,21,535,11920,4601,6424,57542,0,3,3,2
fist to point,17:17:39.896,29184,7598,3467,1700,1032,1551,812,1608,1450,878,931,2540,3682,29157,29074,29096,29126,29087,1450,1296,2399,1419,1933,2720,1195,1164,971,927,1560,1674,29109,29157,2147483647,64722,20,538,11921,4600,6425,57542,0,3,3,2
fist to point,17:17:39.927,29056,7545,3445,1665,1001,1533,826,1630,1472,892,931,2522,3691,29170,29170,29069,29135,29206,1423,1283,2434,1419,1929,2698,1186,1164,975,949,1564,1639,29043,29047,2147483647,64718,20,531,11921,4596,6428,57543,0,3,3,2
rest in point,17:17:40.095,29175,7584,3476,1696,1010,1533,777,1647,1494,900,975,2500,3638,29214,29118,29109,29140,29135,1445,1296,2381,1454,1889,2702,1160,1125,997,918,1546,1669,29122,29144,2147483647,64728,16,532,11920,4594,6432,57544,0,3,3,2
rest in point,17:17:40.195,29122,7567,3454,1674,984,1560,799,1665,1480,878,949,2548,3673,29223,29052,29034,29074,29087,1467,1313,2346,1476,1959,2663,1129,1142,979,984,1542,1634,29144,29126,2147483647,64717,15,529,11922,4591,6432,57546,0,3,3,2
rest in point,17:17:40.295,29131,7589,3471,1727,1006,1546,799,1656,1516,839,953,2474,3678,29184,29087,29039,29052,29052,1458,1318,2373,1423,1924,2715,1116,1160,979,909,1538,1665,29144,29065,2147483647,64715,13,534,11932,4595,6424,57558,0,3,3,2
rest in point,17:17:40.395,29201,7642,3467,1687,984,1529,808,1625,1489,887,962,2570,3656,29170,29034,29096,29113,29052,1480,1283,2412,1432,1964,2698,1182,1116,966,918,1542,1656,29126,29206,2147483647,64713,21,532,11934,4593,6418,57553,0,3,3,2
rest in point,17:17:40.495,29157,7602,3502,1683,1006,1590,791,1687,1516,918,988,2566,3651,29179,29087,29043,29113,29126,1458,1313,2434,1445,1955,2663,1177,1160,1001,966,1546,1700,29122,29153,2147483647,64715,23,530,11932,4593,6421,57553,0,3,3,2
rest in point,17:17:40.595,29197,7593,3520,1683,979,1555,821,1625,1524,892,953,2575,3713,29148,29179,29175,29250,29175,1498,1300,2478,1415,1951,2702,1146,1111,1006,936,1568,1744,29192,29192,2147483647,64715,14,530,11938,4594,6417,57559,0,3,3,2
rest in point,17:17:40.695,29162,7624,3541,1700,1010,1520,782,1647,1494,870,940,2566,3708,29214,29096,29069,29008,29069,1432,1296,2478,1445,1951,2671,1142,1182,997,936,1546,1674,29096,29122,2147483647,64718,25,536,11942,4596,6414,57564,0,3,3,2
rest in point,17:17:40.795,29100,7628,3541,1674,997,1520,804,1691,1520,892,927,2579,3647,29254,29140,29113,29074,29126,1458,1287,2434,1441,1929,2685,1182,1146,958,953,1546,1669,29223,29144,2147483647,64717,26,536,11951,4597,6404,57569,0,3,3,2
rest in point,17:17:40.824,29104,7620,3533,1718,984,1560,751,1652,1542,861,962,2623,3638,29201,29104,29065,29078,29052,1454,1283,2434,1476,1937,2715,1186,1208,979,940,1560,1661,29140,29131,2147483647,64716,22,529,11953,4612,6405,57581,0,3,3,2
rest in point,17:17:40.996,29192,7637,3506,1731,1006,1524,804,1687,1568,905,949,2570,3722,29140,29096,29113,29140,29083,1450,1296,2452,1423,1951,2711,1173,1177,1028,922,1511,1683,29078,29126,2147483647,64722,24,545,11961,4610,6395,57586,0,3,3,2
rest in point,17:17:41.095,29113,7633,3493,1749,984,1516,773,1683,1568,874,927,2553,3704,29140,29078,29030,29087,29047,1428,1283,2416,1454,1968,2711,1173,1177,971,931,1538,1661,29131,29104,2147483647,64705,26,530,11970,4624,6393,57605,0,3,3,2
rest in point,17:17:41.127,28968,7620,3458,1713,971,1507,777,1625,1599,900,927,2535,3621,29135,29206,29135,29118,29157,1458,1291,2456,1467,1946,2711,1190,1177,953,940,1529,1683,28872,28968,2147483647,64713,28,526,11968,4631,6403,57615,0,3,3,2
rest in point,17:17:41.429,29135,7628,3502,1683,1019,1511,812,1652,1529,887,975,2588,3687,29206,29144,29083,29140,29148,1458,1318,2443,1467,1964,2707,1208,1151,993,909,1516,1683,29162,29118,2147483647,64717,32,536,11967,4647,6395,57616,0,3,3,2
rest in point,17:17:41.695,29104,7584,3541,1718,1063,1529,782,1647,1582,892,962,2518,3665,29184,29162,29109,29126,29140,1463,1283,2425,1472,1968,2658,1182,1190,958,940,1577,1735,29122,29118,2147483647,64715,28,530,11967,4652,6393,57617,0,3,3,2
rest in point,17:17:41.795,29140,7620,3471,1691,1010,1511,830,1683,1577,900,953,2548,3669,29131,29144,29122,29100,29197,1463,1313,2487,1445,1929,2663,1164,1146,1019,944,1551,1687,29197,29113,2147483647,64719,35,535,11971,4657,6389,57623,0,3,3,2
rest in point,17:17:41.895,29083,7642,3524,1757,975,1502,791,1656,1590,870,966,2478,3634,29126,29153,29078,29061,29162,1472,1265,2478,1467,1955,2689,1173,1151,979,958,1568,1669,29148,29126,2147483647,64717,31,526,11976,4661,6385,57630,0,3,3,2
rest in point,17:17:41.995,29030,7624,3498,1678,1006,1494,826,1639,1546,826,962,2544,3629,29214,29140,29069,29083,29179,1415,1291,2478,1428,1902,2715,1164,1155,979,931,1586,1647,29219,29126,2147483647,64716,29,528,11972,4666,6393,57633,0,3,3,2
rest in point,17:17:42.096,29126,7646,3541,1687,997,1485,808,1652,1542,900,988,2513,3665,29175,29144,29091,29065,29153,1485,1278,2399,1485,1898,2693,1168,1168,931,958,1564,1683,29162,29104,2147483647,64715,33,531,11972,4670,6393,57634,0,3,3,2
rest in point,17:17:42.195,29144,7633,3515,1705,993,1546,843,1665,1582,874,966,2553,3660,29175,29184,29100,29126,29113,1445,1270,2452,1458,1946,2707,1182,1160,966,936,1516,1683,29188,29148,2147483647,64709,29,530,11978,4672,6389,57642,0,3,3,2
rest in point,17:17:42.295,29170,7598,3476,1709,958,1480,804,1678,1590,905,918,2518,3678,29148,29153,29087,29074,29122,1463,1296,2399,1437,1955,2667,1168,1164,979,936,1555,1674,29184,29140,2147483647,64714,38,528,11978,4671,6390,57642,0,3,3,2
rest in point,17:17:42.395,29104,7567,3493,1713,997,1555,808,1625,1538,878,944,2491,3669,29192,29175,29162,29140,29153,1432,1318,2456,1467,1929,2636,1199,1195,962,936,1538,1665,28880,29126,2147483647,64714,40,523,11975,4674,6398,57645,0,3,3,2
rest in point,17:17:42.496,29104,7562,3471,1687,1001,1507,821,1652,1582,905,979,2482,3651,29175,29140,29065,29078,29162,1445,1305,2438,1437,1946,2707,1186,1168,962,927,1564,1674,29184,29104,2147483647,64724,31,524,11978,4669,6401,57650,0,3,3,2
rest in point,17:17:42.595,29109,7584,3458,1731,1010,1529,808,1612,1546,817,962,2500,3665,29188,29104,29113,29056,29122,1428,1309,2443,1423,1916,2680,1177,1155,984,949,1520,1665,29118,29166,2147483647,64709,34,535,11985,4678,6405,57670,0,3,3,2
rest in point,17:17:42.695,29184,7580,3480,1674,971,1542,804,1630,1568,883,979,2487,3625,29131,29157,29109,29043,29179,1467,1305,2421,1454,1951,2698,1186,1168,975,914,1533,1656,29214,29140,2147483647,64715,37,534,11988,4684,6406,57677,0,3,3,2
rest in point,17:17:42.795,29126,7598,3476,1700,997,1507,799,1639,1529,887,940,2522,3660,29192,29153,29078,29069,29126,1467,1327,2430,1445,1933,2689,1164,1173,962,975,1551,1678,29113,29144,2147483647,64716,34,537,11989,4674,6405,57673,0,3,3,2
rest in point,17:17:42.895,29214,7602,3410,1700,1028,1494,799,1617,1573,883,940,2496,3621,29179,29131,29135,29118,29144,1428,1340,2430,1450,1942,2676,1173,1177,979,962,1546,1678,29162,29166,2147483647,64715,29,532,11991,4668,6404,57672,0,3,3,2
rest in point,17:17:43.005,29091,7549,3489,1691,1015,1529,804,1625,1586,883,953,2518,3621,29184,29126,29065,29087,29162,1454,1252,2469,1432,1946,2711,1177,1160,988,936,1551,1652,29135,29157,2147483647,64715,28,530,11993,4659,6407,57672,0,3,3,2
rest in point,17:17:43.095,29069,7598,3458,1687,988,1502,791,1634,1538,874,887,2566,3669,29162,29166,29210,29267,29162,1454,1305,2425,1445,1916,2676,1155,1204,936,914,1546,1674,29025,29034,2147483647,64718,36,538,11996,4657,6396,57665,0,3,3,2
rest in point,17:17:43.122,29148,7571,3493,1669,988,1520,769,1617,1599,918,958,2496,3629,29135,29104,29087,29052,29122,1458,1287,2421,1450,1929,2707,1177,1155,949,936,1538,1661,29192,29131,2147483647,64731,39,544,12000,4647,6390,57662,0,3,3,2
rest in point,17:17:43.231,29083,7567,3502,1700,962,1502,786,1634,1546,856,922,2452,3656,29179,29188,29184,29157,29214,1480,1296,2408,1441,1942,2663,1155,1138,936,900,1542,1674,29047,29113,2147483647,64714,40,531,12007,4644,6377,57659,0,3,3,2
rest in point,17:17:43.395,29140,7589,3432,1731,971,1520,848,1625,1546,892,936,2482,3638,29153,29135,29034,29052,29166,1458,1309,2425,1458,1929,2654,1133,1164,958,896,1612,1709,29126,29140,2147483647,64711,26,536,12006,4659,6369,57661,0,3,3,2
rest in point,17:17:43.423,29162,7541,3467,1656,988,1524,773,1612,1538,909,962,2491,3625,29201,29179,29131,29122,29197,1445,1291,2421,1419,1911,2636,1155,1116,962,962,1546,1691,29153,29219,2147483647,64707,24,527,12002,4660,6366,57654,0,3,3,2
rest in point,17:17:43.596,29126,7562,3454,1705,953,1507,804,1639,1555,870,953,2469,3612,29179,29157,29074,29096,29157,1445,1291,2469,1419,1942,2663,1173,1186,984,958,1533,1669,29087,29148,2147483647,64718,33,533,11998,4655,6370,57647,0,3,3,2
rest in point,17:17:43.695,29197,7536,3410,1705,984,1463,834,1595,1533,874,975,2478,3669,29179,29179,29065,29052,29201,1467,1327,2399,1437,1924,2693,1142,1155,975,896,1546,1687,29188,29201,2147483647,64722,26,529,11997,4653,6372,57646,0,3,3,2
rest in point,17:17:43.722,29122,7593,3458,1696,993,1485,791,1639,1529,878,914,2469,3634,29118,29157,29122,29087,29166,1415,1283,2381,1441,1916,2663,1168,1146,975,883,1573,1625,29166,29144,2147483647,64721,30,538,11997,4652,6370,57643,0,3,3,2
rest in point,17:17:43.821,29153,7598,3445,1700,962,1542,773,1612,1564,852,900,2491,3621,29144,29162,29069,29069,29179,1463,1278,2438,1441,1854,2671,1173,1151,944,927,1573,1661,29131,29201,2147483647,64713,33,529,12000,4648,6365,57642,0,3,3,2
rest in point,17:17:43.996,29113,7633,3396,1705,984,1489,808,1604,1529,883,953,2460,3634,29157,29166,29056,29039,29148,1480,1305,2460,1423,1937,2667,1133,1186,931,931,1529,1661,29087,29113,2147483647,64723,32,537,11999,4650,6361,57638,0,3,3,2
rest in point,17:17:44.095,29113,7576,3454,1709,949,1489,777,1621,1546,878,944,2469,3612,29197,29184,29069,29065,29184,1458,1291,2452,1410,1937,2671,1173,1120,971,931,1533,1656,29109,29179,2147483647,64718,44,544,11992,4659,6353,57627,0,3,3,2
rest in point,17:17:44.195,29153,7580,3454,1674,1001,1498,786,1608,1529,878,971,2491,3603,29175,29144,29052,29065,29144,1428,1252,2434,1415,1885,2676,1160,1182,940,922,1502,1634,29113,29144,2147483647,64712,32,527,11995,4661,6346,57627,0,3,3,2
rest in point,17:17:44.296,29096,7567,3427,1669,1006,1511,777,1625,1546,887,949,2469,3643,29135,29197,29087,29118,29135,1450,1318,2487,1432,1920,2654,1138,1151,966,927,1520,1647,29210,29162,2147483647,64719,34,541,11996,4658,6342,57624,0,3,3,2
rest in point,17:17:44.321,29140,7545,3414,1665,993,1454,826,1599,1520,883,962,2482,3629,29153,29166,29104,29074,29175,1463,1265,2447,1489,1863,2707,1186,1182,949,927,1520,1669,29162,29206,2147483647,64720,33,540,11999,4654,6338,57622,0,3,3,2
rest in point,17:17:44.495,29166,7571,3454,1665,1019,1507,777,1595,1564,878,962,2460,3660,29104,29197,29056,29065,29184,1476,1296,2438,1406,1916,2680,1173,1177,984,936,1551,1678,29140,29135,2147483647,64712,32,540,12000,4648,6336,57619,0,3,3,2
rest in point,17:17:44.595,29197,7523,3445,1700,1023,1498,804,1621,1533,878,988,2456,3634,29122,29162,29100,29083,29162,1454,1309,2430,1445,1920,2689,1190,1160,931,953,1546,1643,29175,29188,2147483647,64717,35,535,12001,4644,6337,57618,0,3,3,2
rest in point,17:17:44.696,29140,7527,3467,1652,997,1472,795,1634,1529,834,922,2447,3647,29157,29197,29109,29100,29206,1476,1318,2434,1428,1907,2641,1164,1129,971,900,1551,1656,29170,29162,2147483647,64722,33,538,11999,4643,6340,57618,0,3,3,2
rest in point,17:17:44.722,29192,7514,3418,1705,984,1489,786,1604,1538,874,958,2460,3621,29096,29162,29153,29126,29113,1419,1287,2443,1406,1898,2671,1155,1151,966,927,1546,1661,29148,29197,2147483647,64719,35,542,12000,4641,6339,57617,0,3,3,2
rest in point,17:17:44.895,29126,7593,3414,1691,971,1489,830,1612,1568,852,944,2478,3621,29135,29166,29087,29096,29206,1454,1313,2443,1401,1929,2693,1146,1142,988,931,1546,1674,29166,29126,2147483647,64722,31,535,12006,4646,6337,57627,0,3,3,2
rest in point,17:17:44.995,29188,7554,3414,1713,984,1520,786,1621,1507,887,918,2482,3607,29100,29118,29100,29087,29122,1463,1305,2430,1458,1911,2636,1186,1146,953,944,1542,1625,29175,29192,2147483647,64716,32,532,12007,4645,6343,57632,0,3,3,2
point to fist,17:17:45.096,29140,7536,3458,1691,997,1502,777,1599,1551,870,975,2509,3643,29148,29126,29144,29118,29223,1463,1300,2408,1445,1907,2685,1164,1168,936,892,1489,1669,29140,29148,2147483647,64722,28,541,12005,4645,6345,57631,0,3,3,2
point to fist,17:17:45.195,29118,7554,3405,1705,966,1467,799,1608,1538,861,966,2469,3581,29135,29175,29148,29122,29153,1458,1291,2412,1419,1942,2667,1160,1146,966,953,1538,1617,29236,29126,2147483647,64722,34,539,12004,4642,6350,57633,0,3,3,2
point to fist,17:17:45.295,29175,7554,3423,1674,1001,1511,786,1612,1542,834,944,2487,3638,29144,29140,29091,29153,29175,1458,1300,2434,1450,1916,2658,1133,1164,984,922,1542,1647,29074,29140,2147483647,64719,31,537,12006,4636,6356,57636,0,3,3,2
point to fist,17:17:45.395,29179,7514,3432,1687,979,1538,817,1617,1546,883,936,2522,3572,29170,29192,29118,29065,29170,1485,1300,2395,1401,1902,2671,1133,1151,966,909,1538,1661,29232,29157,2147483647,64716,35,539,12005,4634,6360,57637,0,3,3,2
point to fist,17:17:45.423,29113,7554,3440,1691,975,1507,795,1608,1533,883,984,2474,3621,29175,29157,29122,29104,29197,1445,1322,2438,1454,1902,2654,1168,1168,979,927,1502,1661,29170,29140,2147483647,64726,31,536,12004,4631,6368,57641,0,3,3,2
point to fist,17:17:45.595,29078,7523,3449,1674,1001,1516,773,1612,1494,834,922,2460,3607,29201,29197,29175,29144,29184,1458,1274,2416,1463,1920,2663,1138,1129,993,918,1560,1713,28929,29043,2147483647,64717,28,538,12002,4632,6376,57644,0,3,3,2
point to fist,17:17:45.621,29087,7549,3432,1678,1006,1529,786,1647,1494,883,971,2465,3625,29113,29140,29131,29170,29157,1463,1256,2465,1419,1929,2689,1190,1138,962,958,1507,1647,29179,29104,2147483647,64714,37,532,11997,4622,6391,57643,0,3,3,2
point to fist,17:17:45.795,29065,7567,3388,1700,1010,1507,795,1625,1507,843,971,2482,3616,29179,29157,29166,29223,29184,1502,1261,2412,1450,1911,2654,1138,1146,984,918,1555,1669,28981,29061,2147483647,64723,32,527,11996,4615,6401,57646,0,3,3,2
point to fist,17:17:45.894,29100,7562,3436,1691,979,1480,817,1634,1568,874,944,2487,3638,29188,29192,29175,29153,29144,1472,1305,2381,1423,1951,2698,1142,1138,922,905,1538,1687,29052,29166,2147483647,64722,28,540,11993,4620,6408,57648,0,3,3,2
point to fist,17:17:45.994,29170,7602,3432,1700,988,1507,795,1612,1529,892,953,2460,3616,29197,29140,29157,29140,29118,1480,1291,2438,1423,1929,2685,1177,1168,988,927,1546,1669,29104,29179,2147483647,64720,32,535,11995,4614,6410,57651,0,3,3,2
point to fist,17:17:46.094,29170,7562,3467,1665,993,1524,826,1617,1476,887,953,2531,3643,29162,29192,29175,29157,29179,1472,1287,2465,1467,1946,2658,1204,1142,1010,922,1560,1674,29104,29188,2147483647,64718,25,529,11996,4613,6414,57654,0,3,3,2
point to fist,17:17:46.195,29197,7620,3458,1731,993,1511,817,1625,1551,874,944,2491,3643,29232,29192,29162,29192,29188,1445,1313,2408,1441,1916,2702,1164,1116,944,940,1529,1678,29118,29148,2147483647,64724,19,531,11995,4607,6416,57652,0,3,3,2
point to fist,17:17:46.294,29166,7576,3401,1709,1015,1494,777,1573,1533,874,949,2540,3607,29201,29179,29074,29118,29197,1498,1300,2469,1419,1933,2685,1125,1142,971,958,1542,1647,29118,29148,2147483647,64716,24,540,11995,4602,6413,57646,0,3,3,2
point to fist,17:17:46.394,29175,7593,3462,1691,1006,1538,760,1647,1507,887,993,2557,3603,29223,29162,29153,29157,29206,1458,1305,2430,1445,1898,2676,1168,1155,984,905,1546,1678,29232,29188,2147483647,64718,20,537,11997,4597,6412,57646,0,3,3,2
point to fist,17:17:46.495,29184,7584,3436,1722,1001,1511,786,1612,1542,874,962,2566,3581,29153,29166,29153,29140,29166,1397,1278,2482,1410,1977,2663,1125,1151,962,984,1568,1669,29162,29153,2147483647,64717,21,531,11999,4590,6411,57643,0,3,3,2
point to fist,17:17:46.595,29179,7598,3436,1713,988,1533,804,1612,1458,896,949,2627,3629,29157,29170,29236,29166,29201,1441,1327,2447,1410,1937,2658,1160,1138,953,958,1546,1665,29091,29188,2147483647,64723,20,531,11996,4585,6417,57641,0,3,3,2
point to fist,17:17:46.694,29188,7558,3388,1713,984,1538,791,1604,1476,892,949,2619,3647,29162,29170,29140,29192,29170,1507,1322,2447,1441,1951,2654,1164,1199,979,905,1511,1621,29096,29184,2147483647,64716,21,529,11995,4582,6419,57640,0,3,3,2
point to fist,17:17:46.804,29122,7554,3480,1700,1006,1555,795,1630,1529,826,900,2702,3616,29201,29197,29219,29135,29170,1458,1309,2460,1432,1959,2671,1186,1133,993,909,1507,1661,29083,29197,2147483647,64722,17,532,11996,4578,6419,57639,0,3,3,2
point to fist,17:17:46.895,29122,7576,3423,1696,1001,1546,777,1612,1529,878,896,2685,3656,28964,29184,29197,29192,29179,1445,1300,2447,1419,1942,2645,1168,1164,971,931,1538,1661,29109,29118,2147483647,64722,22,543,11997,4572,6417,57636,0,3,3,2
point to fist,17:17:46.995,29122,7584,3388,1691,979,1546,769,1586,1502,883,944,2614,3603,29184,29184,29184,29206,29109,1467,1335,2443,1450,1898,2619,1164,1182,936,918,1560,1661,28977,29157,2147483647,64718,8,537,12000,4563,6418,57635,0,3,3,2
point to fist,17:17:47.094,29170,7541,3449,1687,979,1520,786,1582,1472,914,975,2658,3634,29126,29096,29166,29166,29157,1463,1291,2456,1441,1911,2597,1111,1138,966,944,1529,1643,29008,29192,2147483647,64714,22,535,12001,4558,6417,57633,0,3,3,2
point to fist,17:17:47.194,29148,7611,3445,1674,1001,1511,826,1582,1458,892,979,2601,3621,29179,29219,29083,29122,29188,1476,1313,2408,1415,1929,2632,1173,1160,962,940,1542,1661,29017,29153,2147483647,64721,18,531,12001,4555,6417,57631,0,3,3,2
point to fist,17:17:47.305,29184,7620,3432,1691,988,1511,812,1568,1546,900,984,2663,3581,29192,29210,29184,29157,29162,1480,1278,2469,1406,1924,2592,1173,1138,1019,914,1555,1705,29034,29153,2147483647,64722,19,537,12003,4549,6415,57628,0,3,3,2
point to fist,17:17:47.327,29043,7576,3410,1652,1010,1524,795,1555,1502,909,931,2632,3625,29021,29148,29148,29170,29162,1450,1283,2443,1441,1920,2636,1155,1133,958,940,1542,1621,29166,29074,2147483647,64720,19,541,12005,4548,6410,57629,0,3,3,2
point to fist,17:17:47.494,29188,7536,3440,1683,1006,1533,795,1555,1472,843,918,2588,3625,29175,29188,29131,29157,29109,1480,1300,2425,1437,1902,2671,1125,1138,962,905,1524,1630,28951,29188,2147483647,64714,20,541,12008,4544,6408,57629,0,3,3,2
point to fist,17:17:47.594,29162,7593,3383,1674,1015,1529,782,1599,1502,861,975,2583,3629,29192,29170,29157,29131,29175,1494,1287,2430,1428,1916,2562,1160,1186,962,927,1573,1669,29052,29148,2147483647,64726,21,533,12008,4540,6412,57629,0,3,3,2
point to fist,17:17:47.705,29091,7611,3396,1687,1001,1551,773,1608,1476,874,905,2614,3638,29192,29188,29197,29192,29201,1463,1309,2460,1428,1920,2623,1155,1160,984,931,1538,1687,29052,29175,2147483647,64719,20,534,12009,4529,6417,57628,0,3,3,2
point to fist,17:17:47.794,29131,7554,3432,1709,1006,1502,804,1551,1511,887,953,2610,3612,29047,29184,29153,29166,29206,1454,1283,2399,1437,1946,2619,1151,1177,971,966,1538,1678,29100,29148,2147483647,64714,21,539,12014,4513,6418,57629,0,3,3,2
point to fist,17:17:47.894,29170,7562,3432,1727,975,1555,791,1595,1542,874,953,2570,3616,29219,29206,29192,29232,29179,1480,1278,2460,1419,1933,2566,1146,1164,1001,949,1590,1643,29052,29188,2147483647,64720,12,545,12016,4506,6420,57628,0,3,3,2
point to fist,17:17:47.995,29170,7567,3405,1683,1010,1529,782,1577,1555,874,914,2588,3643,29148,29118,29153,29170,29148,1458,1327,2368,1445,1929,2597,1151,1168,931,883,1533,1652,29025,29126,2147483647,64718,9,535,12016,4489,6430,57627,0,3,3,2
point to fist,17:17:48.095,29201,7545,3440,1683,962,1511,817,1564,1467,896,966,2605,3603,29206,29175,29170,29188,29201,1476,1261,2412,1419,1898,2597,1173,1142,962,927,1529,1599,29008,29179,2147483647,64724,10,540,12020,4475,6435,57629,0,3,3,2
point to fist,17:17:48.204,29131,7541,3405,1705,962,1529,791,1568,1507,914,927,2627,3638,29192,29144,29153,29135,29131,1450,1331,2386,1362,1937,2623,1168,1182,953,958,1516,1669,29091,29148,2147483647,64719,7,536,12023,4464,6439,57631,0,3,3,2
point to fist,17:17:48.294,29126,7501,3423,1669,984,1494,791,1529,1467,874,896,2575,3599,29135,29201,29188,29214,29179,1476,1318,2403,1419,1907,2614,1164,1164,997,914,1577,1634,29131,29140,2147483647,64720,15,542,12022,4459,6446,57632,0,3,3,2
point to fist,17:17:48.405,29162,7536,3396,1705,993,1529,791,1564,1494,852,905,2614,3647,29201,29184,29140,29206,29122,1458,1300,2434,1423,1937,2579,1173,1133,936,914,1498,1652,29113,29144,2147483647,64721,14,542,12018,4461,6456,57634,0,3,3,2
point to fist,17:17:48.494,29100,7541,3414,1705,997,1516,791,1568,1494,900,909,2579,3647,29118,29210,29192,29228,29188,1450,1261,2416,1441,1894,2597,1155,1164,975,953,1546,1625,29214,29144,2147483647,64716,14,540,12017,4453,6471,57642,0,3,3,2
point to fist,17:17:48.520,29140,7571,3383,1665,971,1520,786,1560,1480,843,940,2540,3625,29113,29104,29153,29201,29166,1467,1305,2381,1432,1885,2575,1164,1173,949,936,1538,1643,29061,29148,2147483647,64722,12,542,12024,4446,6480,57655,0,3,3,2
point to fist,17:17:48.694,29144,7633,3418,1705,944,1511,799,1573,1485,870,922,2544,3634,29157,29175,29179,29210,29170,1441,1291,2386,1454,1880,2575,1155,1142,936,900,1542,1647,29021,29153,2147483647,64722,4,535,12029,4423,6490,57658,0,3,3,2
point to fist,17:17:48.721,29179,7558,3484,1674,975,1529,817,1564,1520,865,931,2605,3665,29153,29153,29166,29135,29118,1432,1327,2425,1432,1916,2605,1160,1129,962,918,1573,1674,28951,29166,2147483647,64721,5,541,12031,4412,6500,57663,0,3,3,2
point to fist,17:17:48.914,29162,7505,3396,1678,984,1498,808,1516,1502,874,936,2579,3594,29188,29170,29214,29192,29153,1450,1283,2381,1419,1946,2575,1120,1133,1001,936,1542,1656,28902,29175,2147483647,64726,4,535,12030,4409,6502,57662,0,3,3,2
point to fist,17:17:49.004,29192,7554,3427,1665,958,1524,791,1538,1502,865,975,2597,3616,29131,29087,29113,29113,29126,1467,1318,2408,1437,1902,2627,1151,1129,949,905,1551,1661,29153,29157,2147483647,64718,2,535,12032,4404,6499,57659,0,3,3,2
point to fist,17:17:49.095,29122,7541,3436,1687,1001,1551,786,1538,1467,848,984,2531,3581,29140,29135,29210,29170,29175,1454,1265,2408,1423,1885,2623,1177,1186,997,909,1502,1634,29192,29188,2147483647,64716,5,541,12030,4407,6501,57660,0,3,3,2
point to fist,17:17:49.123,29210,7589,3445,1705,940,1520,812,1524,1467,874,962,2562,3599,29175,29157,29166,29184,29100,1472,1300,2390,1432,1889,2636,1155,1146,958,905,1555,1625,29021,29170,2147483647,64722,3,538,12027,4409,6509,57664,0,3,3,2
point to fist,17:17:49.220,29214,7571,3471,1713,993,1533,799,1560,1472,896,944,2526,3607,29184,29140,29201,29197,29157,1450,1327,2395,1441,1916,2575,1168,1168,966,883,1546,1595,28995,29228,2147483647,64724,65533,540,12024,4413,6516,57667,0,3,3,2
point to fist,17:17:49.320,29214,7532,3445,1705,1006,1542,834,1507,1467,900,909,2548,3678,29096,29135,29135,29192,29131,1441,1327,2395,1423,1942,2614,1164,1155,984,892,1546,1691,29061,29206,2147483647,64715,7,537,12017,4431,6518,57668,0,3,3,2
point to fist,17:17:49.505,29197,7593,3458,1691,993,1577,782,1507,1458,887,958,2562,3669,29148,29210,29206,29166,29170,1489,1287,2355,1463,1885,2597,1164,1125,979,931,1546,1661,28933,29210,2147483647,64716,10,540,12011,4441,6525,57669,0,3,3,2
