Scenario,Time,P0,P1,P2,P3,P4,P5,P6,P7,P8,P9,P10,P11,P12,P13,P14,P15,P16,P17,P18,P19,P20,P21,P22,P23,P24,P25,P26,P27,P28,P29,P30,P31,ECG,AX,AY,AZ,QW,QX,QY,QZ,CS,CA,CG,CM
Wait,15:35:59.980,31502,31403,31473,31380,31473,31433,31479,31380,31479,31444,31467,31386,31526,31467,31392,31403,31433,31374,31479,31473,31456,31462,31514,31427,31380,31421,31508,31462,31398,31456,31386,31479,28265238,65345,168,944,16239,1451,1622,0,0,1,3,0
Wait,15:36:00.084,31444,31526,31438,31316,31450,31485,31415,31432,31415,31415,31380,31398,31479,31432,31415,31473,31427,31427,31479,31543,31467,31520,31386,31473,31368,31421,31537,31462,31403,31491,31479,31467,28447172,65346,167,939,16239,1451,1622,0,0,1,3,0
Wait,15:36:00.262,31497,31485,31450,31386,31467,31526,31368,31462,31444,31456,31526,31462,31450,31485,31444,31473,31473,31386,31473,31497,31363,31567,31444,31467,31456,31427,31433,31456,31322,31450,31444,31491,28627918,65343,168,945,16239,1451,1622,0,0,1,3,0
Wait,15:36:00.361,31450,31485,31491,31432,31450,31514,31415,31438,31433,31421,31415,31218,31467,31473,31403,31409,31450,31467,31485,31502,31241,31415,31462,31427,31462,31386,31415,31450,31363,31438,31415,31409,28808710,65346,170,946,16239,1451,1622,0,0,1,3,0
Wait,15:36:00.380,31438,31432,31444,31473,31485,31456,31363,31433,31502,31462,31491,31322,31462,31467,31386,31444,31438,31467,31491,31450,31305,31485,31444,31421,31421,31444,31456,31514,31444,31514,31473,31532,28991040,65347,169,939,16239,1451,1622,0,0,1,3,0
Wait,15:36:00.480,31450,31386,31497,31252,31403,31485,31427,31456,31462,31386,31485,31293,31479,31520,31386,31491,31508,31473,31473,31444,31340,31508,31456,31450,31427,31409,31514,31450,31357,31526,31415,31456,29171786,65343,168,938,16239,1451,1622,0,0,1,3,0
Wait,15:36:00.579,31462,31485,31462,31287,31485,31497,31444,31444,31462,31456,31497,31427,31473,31491,31403,31450,31479,31357,31526,31485,31363,31473,31462,31438,31456,31409,31514,31462,31252,31479,31497,31485,29354244,65345,168,938,16239,1451,1622,0,0,1,3,0
Wait,15:36:00.682,31450,31450,31497,31357,31479,31491,31421,31462,31409,31438,31502,31369,31502,31462,31368,31444,31514,31432,31491,31479,31514,31508,31450,31374,31479,31450,31438,31444,31351,31491,31421,31444,29535562,65346,168,937,16239,1451,1622,0,0,1,3,0
Wait,15:36:00.794,31473,31427,31392,31427,31403,31473,31450,31456,31491,31403,31444,31241,31479,31537,31427,31403,31473,31415,31462,31444,31305,31497,31502,31421,31438,31409,31479,31444,31392,31537,31444,31491,29716486,65345,166,942,16239,1451,1622,0,0,1,3,0
Wait,15:36:00.901,31433,31456,31438,31264,31485,31473,31380,31497,31473,31444,31514,31450,31456,31479,31433,31427,31450,31415,31467,31485,31415,31532,31403,31438,31514,31427,31502,31467,31282,31526,31473,31479,29898420,65341,168,946,16239,1451,1622,0,0,1,3,0
Wait,15:36:00.979,31473,31398,31438,31386,31508,31491,31368,31438,31432,31421,31444,31351,31502,31467,31467,31444,31421,31415,31502,31456,31339,31485,31438,31497,31421,31409,31497,31514,31403,31479,31369,31427,30079342,65344,164,951,16239,1451,1622,0,0,1,3,0
Wait,15:36:01.082,31421,31456,31415,31252,31444,31497,31415,31473,31438,31432,31392,31462,31450,31467,31438,31363,31392,31450,31409,31456,31398,31491,31409,31450,31456,31409,31438,31479,31218,31444,31502,31415,30261496,65343,166,942,16239,1451,1622,0,0,1,3,0
Wait,15:36:01.262,31467,31421,31467,31241,31491,31479,31368,31491,31467,31409,31502,31368,31497,31433,31386,31467,31450,31438,31514,31467,31473,31508,31462,31520,31444,31427,31520,31514,31363,31473,31473,31432,30442374,65343,166,945,16239,1451,1622,0,0,1,3,0
Wait,15:36:01.290,31479,31409,31473,31421,31497,31438,31444,31427,31467,31409,31543,31340,31497,31485,31398,31473,31421,31467,31450,31485,31404,31479,31502,31450,31532,31374,31473,31473,31415,31438,31427,31462,30625054,65345,169,939,16239,1451,1622,0,0,1,3,0
Wait,15:36:01.382,31467,31479,31491,31200,31508,31421,31392,31444,31491,31433,31438,31293,31444,31473,31398,31438,31491,31409,31502,31467,31491,31497,31479,31473,31497,31363,31520,31514,31386,31491,31433,31462,30805538,65346,168,937,16239,1451,1622,0,0,1,3,0
Wait,15:36:01.484,31520,31427,31386,31247,31491,31485,31432,31467,31444,31462,31491,31497,31450,31462,31444,31467,31456,31444,31520,31508,31444,31537,31485,31444,31502,31450,31491,31473,31230,31514,31438,31485,30987826,65344,169,940,16239,1451,1622,0,0,1,3,0
Wait,15:36:01.590,31415,31456,31363,31398,31450,31532,31386,31456,31433,31450,31514,31258,31456,31543,31351,31462,31491,31363,31526,31491,31241,31497,31497,31450,31497,31438,31473,31398,31421,31497,31479,31497,31170156,65345,168,938,16239,1451,1622,0,0,1,3,0
Wait,15:36:01.683,31485,31491,31473,31258,31392,31456,31380,31462,31456,31456,31467,31322,31415,31427,31456,31438,31368,31380,31421,31421,31433,31473,31485,31497,31444,31450,31433,31502,31427,31415,31438,31479,31350992,65345,168,942,16239,1451,1622,0,0,1,3,0
Wait,15:36:01.780,31450,31462,31497,31421,31485,31438,31415,31491,31450,31386,31421,31334,31526,31456,31444,31444,31473,31403,31450,31502,31293,31473,31497,31462,31438,31432,31473,31526,31368,31450,31398,31432,31531476,65344,171,944,16239,1451,1622,0,0,1,3,0
Wait,15:36:01.962,31485,31485,31432,31456,31537,31502,31444,31491,31467,31467,31508,31369,31473,31462,31392,31467,31432,31421,31450,31403,31270,31514,31433,31438,31438,31427,31514,31403,31479,31502,31497,31444,31713760,65346,168,943,16239,1451,1622,0,0,1,3,0
Wait,15:36:01.980,31491,31485,31462,31398,31561,31462,31415,31392,31438,31462,31438,31351,31520,31468,31398,31392,31415,31467,31491,31479,31293,31432,31473,31502,31415,31479,31456,31497,31398,31427,31450,31497,31894114,65345,169,941,16239,1451,1622,0,0,1,3,0
Wait,15:36:02.084,31462,31491,31555,31462,31485,31491,31462,31532,31485,31421,31520,31276,31467,31491,31363,31462,31462,31438,31456,31467,31311,31456,31502,31462,31421,31450,31444,31479,31368,31502,31485,31444,32074728,65344,169,937,16239,1451,1622,0,0,1,3,0
Wait,15:36:02.261,31479,31485,31369,31258,31491,31479,31351,31438,31444,31497,31491,31398,31508,31479,31368,31380,31427,31322,31503,31444,31497,31409,31409,31467,31462,31369,31409,31508,31357,31427,31543,31421,32256838,65344,169,940,16239,1451,1622,0,0,1,3,0
Wait,15:36:02.279,31462,31415,31456,31438,31450,31497,31409,31450,31444,31409,31456,31276,31450,31491,31421,31473,31462,31403,31427,31462,31322,31508,31497,31537,31427,31427,31438,31467,31473,31479,31421,31433,32437408,65344,168,941,16239,1451,1622,0,0,1,3,0
Wait,15:36:02.461,31450,31380,31485,31415,31479,31479,31357,31497,31427,31433,31456,31212,31456,31467,31444,31421,31444,31427,31450,31467,31264,31462,31444,31456,31450,31415,31497,31479,31421,31514,31427,31497,32618112,65347,171,938,16239,1451,1622,0,0,1,3,0
Wait,15:36:02.481,31444,31450,31432,31270,31479,31432,31415,31438,31409,31432,31473,31438,31473,31526,31409,31462,31462,31438,31532,31467,31526,31491,31508,31473,31456,31438,31450,31497,31328,31491,31502,31409,32799124,65346,168,937,16239,1451,1622,0,0,1,3,0
Wait,15:36:02.662,31479,31357,31427,31305,31508,31502,31421,31432,31421,31421,31444,31421,31450,31479,31403,31374,31467,31433,31502,31549,31357,31462,31421,31497,31392,31380,31485,31543,31339,31456,31380,31444,32980178,65345,166,942,16239,1451,1622,0,0,1,3,0
Wait,15:36:02.761,31444,31520,31456,31374,31467,31485,31415,31497,31485,31427,31491,31339,31467,31491,31374,31403,31444,31467,31456,31491,31328,31456,31473,31473,31485,31403,31467,31479,31473,31473,31438,31433,33161276,65344,167,947,16239,1451,1622,0,0,1,3,0
Wait,15:36:02.862,31427,31421,31456,31450,31415,31473,31392,31398,31409,31427,31427,31345,31444,31438,31398,31409,31433,31415,31491,31398,31310,31450,31444,31392,31409,31392,31479,31479,31421,31473,31392,31491,33342376,65344,167,946,16239,1451,1622,0,0,1,3,0
Wait,15:36:02.962,31433,31380,31415,31404,31479,31491,31398,31502,31438,31409,31479,31386,31514,31491,31403,31421,31456,31398,31444,31427,31351,31526,31467,31485,31479,31368,31450,31427,31369,31467,31421,31409,33523300,65346,171,945,16239,1451,1622,0,0,1,3,0
Wait,15:36:02.983,31467,31409,31467,31374,31497,31497,31386,31392,31415,31339,31438,31316,31456,31409,31357,31462,31433,31386,31444,31398,31247,31497,31462,31421,31415,31398,31345,31427,31316,31462,31363,31491,33703608,65345,168,946,16239,1451,1622,0,0,1,3,0
Wait,15:36:03.162,31473,31508,31485,31386,31491,31502,31462,31444,31502,31427,31491,31479,31497,31450,31450,31403,31369,31380,31427,31502,31444,31467,31502,31485,31508,31368,31485,31462,31293,31473,31415,31473,33884836,65345,166,939,16239,1451,1622,0,0,1,3,0
Wait,15:36:03.262,31427,31485,31438,31403,31450,31421,31374,31427,31467,31421,31374,31287,31438,31473,31334,31403,31438,31316,31502,31456,31270,31438,31462,31415,31450,31369,31450,31485,31456,31467,31462,31432,34067384,65344,166,942,16239,1451,1622,0,0,1,3,0
Wait,15:36:03.362,31386,31444,31409,31293,31444,31491,31409,31491,31421,31485,31479,31386,31485,31409,31444,31444,31456,31421,31438,31502,31520,31526,31502,31444,31415,31403,31456,31526,31357,31479,31450,31479,34249756,65344,166,943,16239,1451,1622,0,0,1,3,0
Wait,15:36:03.461,31485,31473,31485,31462,31450,31444,31398,31432,31415,31508,31485,31386,31473,31467,31398,31485,31403,31427,31409,31502,31264,31473,31473,31415,31421,31433,31473,31485,31450,31462,31479,31386,34431908,65347,169,941,16239,1451,1622,0,0,1,3,0
Wait,15:36:03.562,31438,31415,31403,31403,31497,31450,31403,31444,31462,31415,31444,31357,31444,31444,31479,31473,31450,31368,31497,31497,31200,31485,31415,31409,31456,31421,31485,31567,31450,31479,31403,31368,34614192,65346,168,939,16239,1451,1622,0,0,1,3,0
Wait,15:36:03.661,31485,31438,31543,31374,31433,31432,31398,31444,31438,31450,31444,31270,31473,31450,31398,31380,31369,31392,31427,31444,31282,31479,31467,31438,31363,31427,31427,31386,31345,31456,31444,31479,34794944,65345,171,939,16239,1451,1622,0,0,1,3,0
Wait,15:36:03.762,31427,31456,31403,31369,31421,31485,31386,31456,31403,31462,31462,31345,31514,31456,31444,31427,31415,31374,31549,31491,31380,31444,31380,31403,31485,31368,31456,31578,31380,31473,31467,31438,34975824,65347,167,940,16239,1451,1622,0,0,1,3,0
Wait,15:36:03.781,31537,31502,31456,31380,31450,31427,31351,31450,31479,31415,31497,31409,31450,31473,31409,31450,31433,31409,31427,31444,31270,31514,31444,31450,31450,31392,31462,31369,31485,31462,31514,31462,35158244,65344,167,941,16239,1451,1622,0,0,1,3,0
Wait,15:36:03.880,31433,31456,31467,31351,31432,31508,31398,31334,31462,31508,31403,31351,31438,31479,31363,31427,31479,31380,31473,31520,31398,31438,31462,31450,31409,31409,31450,31543,31403,31462,31415,31450,35340132,65345,168,942,16239,1451,1622,0,0,1,3,0
Wait,15:36:04.061,31479,31526,31450,31363,31450,31438,31398,31456,31508,31479,31485,31368,31473,31421,31368,31421,31386,31386,31456,31403,31374,31450,31473,31467,31462,31392,31485,31479,31189,31450,31433,31473,35521228,65345,167,943,16239,1451,1622,0,0,1,3,0
Wait,15:36:04.161,31450,31392,31438,31398,31467,31485,31409,31386,31450,31427,31444,31363,31427,31438,31345,31415,31421,31462,31467,31508,31247,31438,31403,31403,31427,31374,31456,31497,31415,31456,31485,31462,35703248,65345,166,942,16239,1451,1622,0,0,1,3,0
Wait,15:36:04.261,31450,31479,31473,31357,31549,31502,31386,31386,31432,31468,31520,31316,31479,31543,31409,31450,31328,31374,31479,31497,31287,31467,31450,31444,31450,31415,31502,31467,31299,31450,31369,31456,35884040,65344,167,943,16239,1451,1622,0,0,1,3,0
Wait,15:36:04.361,31450,31427,31462,31351,31479,31491,31386,31398,31467,31421,31462,31409,31456,31427,31433,31403,31409,31467,31467,31438,31386,31485,31497,31497,31444,31368,31467,31467,31206,31467,31357,31345,36064216,65346,169,946,16239,1451,1622,0,0,1,3,0
Wait,15:36:04.461,31502,31398,31473,31421,31473,31467,31351,31467,31444,31433,31497,31351,31462,31497,31345,31438,31386,31398,31409,31421,31264,31502,31462,31479,31403,31438,31433,31467,31421,31491,31427,31479,36245092,65345,166,941,16239,1451,1622,0,0,1,3,0
Wait,15:36:04.560,31421,31432,31438,31299,31444,31473,31438,31433,31392,31427,31450,31357,31462,31502,31403,31444,31374,31398,31497,31438,31415,31450,31415,31415,31380,31380,31467,31485,31392,31456,31462,31438,36427288,65345,167,943,16239,1451,1622,0,0,1,3,0
Wait,15:36:04.660,31497,31444,31409,31374,31456,31438,31386,31409,31502,31380,31479,31316,31433,31456,31415,31409,31432,31403,31450,31491,31258,31473,31462,31473,31467,31421,31502,31444,31415,31450,31392,31456,36610060,65347,167,943,16239,1451,1622,0,0,1,3,0
Wait,15:36:04.680,31392,31467,31345,31374,31450,31456,31386,31450,31456,31502,31432,31363,31438,31427,31456,31438,31374,31369,31438,31462,31392,31438,31450,31409,31380,31398,31462,31491,31392,31427,31497,31444,36791860,65344,169,938,16239,1451,1622,0,0,1,3,0
Wait,15:36:04.861,31450,31421,31479,31351,31456,31502,31386,31380,31467,31427,31444,31351,31508,31555,31345,31345,31374,31403,31485,31520,31253,31502,31485,31537,31432,31380,31450,31450,31427,31473,31403,31543,36972740,65345,169,941,16239,1451,1622,0,0,1,3,0
Wait,15:36:04.961,31432,31415,31456,31200,31398,31462,31392,31415,31467,31398,31438,31374,31386,31432,31421,31369,31415,31421,31485,31467,31450,31467,31398,31409,31433,31334,31427,31415,31357,31415,31432,31438,37154764,65346,167,943,16239,1451,1622,0,0,1,3,0
Wait,15:36:05.061,31456,31444,31491,31270,31433,31485,31386,31438,31485,31427,31467,31456,31421,31456,31374,31345,31462,31438,31485,31415,31415,31456,31514,31462,31421,31374,31380,31415,31305,31485,31485,31514,37337268,65345,169,942,16239,1451,1622,0,0,1,3,0
Wait,15:36:05.082,31363,31368,31368,31398,31444,31415,31328,31433,31403,31444,31467,31328,31444,31485,31357,31403,31386,31386,31427,31438,31316,31421,31491,31432,31427,31374,31421,31497,31421,31438,31450,31462,37517708,65344,167,943,16239,1451,1622,0,0,1,3,0
Wait,15:36:05.182,31462,31450,31409,31363,31409,31485,31374,31462,31462,31462,31427,31508,31479,31502,31398,31485,31456,31473,31473,31444,31427,31473,31479,31438,31467,31432,31392,31479,31299,31450,31421,31462,37700124,65344,168,945,16239,1451,1622,0,0,1,3,0
Wait,15:36:05.360,31409,31479,31497,31415,31444,31479,31299,31374,31374,31398,31485,31270,31427,31415,31409,31415,31386,31450,31462,31415,31253,31450,31508,31421,31450,31357,31485,31485,31258,31473,31409,31421,37880608,65347,166,940,16239,1451,1622,0,0,1,3,0
Wait,15:36:05.377,31409,31485,31392,31403,31467,31403,31339,31456,31491,31450,31415,31369,31427,31456,31345,31421,31456,31398,31450,31485,31363,31467,31497,31432,31433,31421,31421,31532,31462,31409,31462,31456,38062892,65345,169,941,16239,1451,1622,0,0,1,3,0
Wait,15:36:05.561,31450,31427,31479,31444,31427,31450,31392,31421,31444,31427,31427,31404,31514,31450,31351,31467,31421,31450,31485,31520,31316,31491,31433,31444,31462,31357,31473,31526,31462,31526,31456,31409,38245528,65345,168,937,16239,1451,1622,0,0,1,3,0
Wait,15:36:05.578,31415,31450,31438,31363,31450,31462,31380,31421,31444,31479,31479,31328,31433,31403,31374,31427,31444,31421,31450,31479,31380,31491,31433,31491,31409,31403,31473,31508,31368,31467,31479,31374,38427812,65345,168,939,16239,1451,1622,0,0,1,3,0
Wait,15:36:05.761,31380,31450,31398,31287,31502,31415,31409,31497,31415,31432,31502,31398,31386,31438,31409,31432,31427,31421,31427,31485,31456,31467,31392,31450,31508,31398,31444,31462,31398,31491,31438,31473,38610008,65345,169,942,16239,1451,1622,0,0,1,3,0
Wait,15:36:05.861,31432,31462,31403,31310,31421,31456,31421,31409,31415,31485,31485,31392,31502,31462,31403,31450,31398,31345,31415,31479,31427,31473,31502,31543,31368,31363,31398,31438,31450,31479,31456,31497,38791940,65346,166,943,16239,1451,1622,0,0,1,3,0
Wait,15:36:05.961,31479,31520,31444,31409,31520,31462,31403,31438,31485,31409,31473,31479,31467,31473,31380,31433,31479,31421,31497,31467,31374,31491,31450,31473,31421,31409,31502,31514,31328,31444,31403,31421,38972996,65345,167,943,16239,1451,1622,0,0,1,3,0
Wait,15:36:05.979,31409,31497,31479,31287,31467,31479,31339,31462,31462,31386,31467,31392,31473,31497,31438,31462,31467,31421,31444,31392,31368,31467,31421,31444,31456,31363,31479,31427,31276,31508,31409,31473,39154048,65347,166,943,16239,1451,1622,0,0,1,3,0
Wait,15:36:06.160,31392,31485,31433,31473,31502,31485,31392,31433,31432,31409,31467,31328,31502,31427,31386,31508,31456,31398,31502,31508,31253,31502,31450,31444,31444,31398,31444,31473,31392,31438,31537,31421,39336244,65346,168,942,16239,1451,1622,0,0,1,3,0
Wait,15:36:06.261,31473,31398,31444,31282,31403,31456,31351,31427,31462,31398,31438,31368,31415,31485,31339,31479,31421,31363,31427,31456,31276,31450,31456,31438,31421,31392,31421,31502,31287,31456,31444,31444,39517300,65346,167,941,16239,1451,1622,0,0,1,3,0
Wait,15:36:06.361,31497,31467,31467,31264,31508,31514,31438,31462,31479,31467,31497,31392,31555,31497,31438,31415,31485,31438,31520,31537,31276,31508,31514,31444,31427,31392,31479,31526,31363,31491,31491,31432,39699852,65344,168,942,16239,1451,1622,0,0,1,3,0
Wait,15:36:06.379,31467,31438,31427,31311,31415,31409,31386,31427,31444,31438,31462,31328,31392,31497,31334,31386,31368,31322,31432,31421,31409,31462,31520,31462,31368,31316,31438,31438,31218,31485,31421,31444,39881212,65345,168,940,16239,1451,1622,0,0,1,3,0
Wait,15:36:06.484,31438,31456,31438,31386,31473,31473,31386,31456,31479,31444,31491,31380,31508,31433,31380,31432,31427,31432,31485,31456,31398,31508,31467,31491,31456,31415,31450,31479,31287,31485,31438,31363,40062352,65346,167,941,16239,1451,1622,0,0,1,3,0
Wait,15:36:06.660,31450,31427,31369,31316,31427,31438,31369,31438,31473,31403,31479,31380,31468,31438,31421,31467,31467,31351,31409,31456,31386,31479,31467,31497,31392,31363,31502,31433,31224,31479,31444,31462,40245604,65343,171,943,16239,1451,1622,0,0,1,3,0
Wait,15:36:06.761,31427,31415,31409,31438,31415,31491,31432,31438,31444,31467,31514,31305,31497,31485,31444,31433,31421,31368,31491,31502,31380,31502,31433,31485,31462,31473,31450,31491,31392,31462,31444,31497,40428152,65347,168,941,16239,1451,1622,0,0,1,3,0
Wait,15:36:06.779,31485,31508,31444,31316,31467,31462,31345,31444,31514,31415,31567,31444,31479,31433,31392,31415,31369,31374,31450,31514,31450,31491,31438,31485,31368,31351,31433,31462,31264,31532,31467,31450,40610304,65343,168,943,16239,1451,1622,0,0,1,3,0
Wait,15:36:06.881,31432,31409,31491,31276,31485,31508,31479,31450,31421,31421,31462,31334,31462,31473,31421,31462,31421,31433,31491,31432,31369,31485,31485,31462,31444,31415,31491,31508,31310,31526,31409,31444,40791272,65346,167,942,16239,1451,1622,0,0,1,3,0
Wait,15:36:06.980,31398,31433,31462,31357,31497,31433,31339,31392,31427,31392,31502,31281,31473,31444,31427,31438,31467,31421,31415,31479,31363,31485,31467,31427,31415,31351,31427,31462,31258,31450,31491,31497,40972416,65346,167,942,16239,1451,1622,0,0,1,3,0
Wait,15:36:07.082,31363,31462,31432,31386,31479,31514,31392,31444,31398,31462,31444,31264,31537,31456,31421,31497,31473,31433,31485,31543,31374,31532,31415,31374,31415,31427,31479,31479,31375,31473,31392,31438,41153648,65344,169,938,16239,1451,1622,0,0,1,3,0
Wait,15:36:07.184,31462,31514,31433,31299,31421,31485,31421,31421,31438,31537,31497,31276,31456,31456,31433,31421,31409,31369,31456,31409,31235,31502,31415,31497,31450,31386,31427,31427,31403,31502,31514,31432,41335888,65346,168,945,16239,1451,1622,0,0,1,3,0
Wait,15:36:07.280,31444,31462,31497,31276,31450,31485,31403,31392,31380,31450,31450,31345,31456,31479,31374,31345,31403,31403,31432,31508,31264,31467,31444,31374,31398,31374,31502,31491,31403,31456,31473,31444,41518260,65347,168,942,16239,1451,1622,0,0,1,3,0
Wait,15:36:07.384,31438,31450,31450,31450,31415,31514,31409,31491,31485,31502,31502,31241,31462,31479,31421,31403,31403,31374,31444,31462,31363,31502,31520,31497,31415,31462,31444,31456,31316,31497,31450,31485,41698700,65345,169,943,16239,1451,1622,0,0,1,3,0
Wait,15:36:07.478,31421,31497,31444,31403,31456,31467,31386,31403,31462,31415,31462,31252,31450,31497,31386,31438,31462,31363,31543,31479,31224,31526,31351,31415,31398,31438,31502,31485,31526,31508,31514,31473,41881032,65345,170,941,16239,1451,1622,0,0,1,3,0
Wait,15:36:07.579,31502,31567,31427,31293,31479,31421,31380,31438,31491,31456,31473,31450,31462,31403,31427,31421,31403,31403,31432,31532,31438,31485,31409,31462,31386,31363,31444,31467,31247,31491,31514,31514,42063140,65344,167,941,16239,1451,1622,0,0,1,3,0
Wait,15:36:07.683,31432,31421,31467,31340,31502,31432,31421,31380,31421,31444,31526,31409,31467,31508,31415,31409,31450,31438,31462,31456,31398,31485,31456,31421,31456,31438,31421,31479,31223,31467,31450,31403,42243316,65345,168,943,16239,1451,1622,0,0,1,3,0
Wait,15:36:07.861,31450,31386,31497,31189,31462,31421,31421,31421,31462,31392,31520,31374,31403,31444,31398,31450,31398,31368,31450,31479,31392,31467,31479,31520,31421,31363,31357,31427,31165,31479,31421,31514,42423888,65345,168,944,16239,1451,1622,0,0,1,3,0
Wait,15:36:07.882,31427,31450,31450,31386,31526,31473,31421,31368,31456,31386,31479,31316,31485,31514,31462,31432,31479,31392,31450,31508,31392,31497,31444,31427,31427,31485,31456,31456,31311,31502,31532,31432,42606660,65343,169,942,16239,1451,1622,0,0,1,3,0
Wait,15:36:07.978,31473,31462,31438,31235,31497,31532,31403,31409,31491,31380,31467,31479,31479,31444,31386,31473,31456,31421,31520,31433,31467,31485,31543,31421,31450,31403,31473,31491,31194,31462,31491,31520,42787760,65344,168,943,16239,1451,1622,0,0,1,3,0
Wait,15:36:08.161,31421,31432,31415,31293,31467,31438,31310,31450,31363,31438,31479,31380,31462,31491,31363,31421,31467,31351,31502,31479,31450,31456,31450,31427,31380,31380,31415,31421,31363,31450,31398,31450,42970132,65346,166,945,16239,1451,1622,0,0,1,3,0
Wait,15:36:08.260,31438,31433,31450,31247,31473,31433,31386,31421,31438,31462,31491,31433,31456,31427,31415,31351,31421,31345,31497,31421,31497,31520,31438,31491,31392,31421,31433,31467,31386,31421,31514,31444,43152332,65344,168,944,16239,1451,1622,0,0,1,3,0
Wait,15:36:08.277,31368,31438,31392,31380,31502,31433,31456,31444,31403,31450,31415,31444,31508,31491,31374,31433,31444,31392,31485,31450,31543,31421,31427,31432,31444,31438,31450,31462,31462,31479,31450,31432,43334532,65345,167,940,16239,1451,1622,0,0,1,3,0
Wait,15:36:08.461,31467,31567,31485,31433,31497,31473,31409,31427,31473,31543,31473,31432,31467,31532,31369,31473,31485,31421,31473,31479,31427,31508,31462,31450,31485,31433,31433,31502,31433,31502,31502,31473,43516684,65346,166,939,16239,1451,1622,0,0,1,3,0
Wait,15:36:08.561,31467,31456,31438,31374,31438,31497,31345,31438,31433,31392,31432,31369,31456,31462,31398,31392,31508,31415,31462,31462,31456,31491,31456,31444,31438,31357,31485,31432,31409,31543,31415,31409,43697036,65344,169,934,16239,1451,1622,0,0,1,3,0
Wait,15:36:08.661,31456,31503,31444,31479,31514,31467,31398,31479,31421,31473,31450,31467,31491,31450,31456,31479,31438,31398,31473,31497,31438,31462,31532,31456,31479,31374,31432,31415,31415,31497,31532,31485,43878752,65345,168,941,16239,1451,1622,0,0,1,3,0
Wait,15:36:08.679,31374,31433,31502,31421,31467,31450,31392,31386,31403,31427,31555,31368,31433,31432,31380,31438,31409,31363,31415,31467,31415,31392,31450,31438,31392,31421,31415,31433,31421,31415,31479,31392,44059148,65343,169,943,16239,1451,1622,0,0,1,3,0
Wait,15:36:08.861,31485,31421,31468,31415,31497,31444,31415,31421,31456,31421,31491,31415,31409,31415,31392,31491,31456,31351,31520,31456,31456,31456,31491,31485,31421,31368,31432,31438,31386,31491,31456,31485,44239672,65344,167,939,16239,1451,1622,0,0,1,3,0
Wait,15:36:08.961,31427,31421,31438,31398,31462,31456,31398,31444,31427,31339,31549,31421,31456,31491,31345,31421,31415,31380,31497,31491,31403,31485,31450,31403,31433,31392,31444,31502,31351,31491,31398,31409,44419980,65344,166,943,16239,1451,1622,0,0,1,3,0
Wait,15:36:09.061,31462,31508,31421,31497,31438,31473,31357,31392,31444,31462,31514,31467,31444,31450,31398,31368,31398,31421,31462,31433,31473,31485,31403,31456,31421,31374,31467,31456,31421,31497,31485,31473,44602132,65343,164,943,16239,1451,1622,0,0,1,3,0
Wait,15:36:09.080,31409,31444,31467,31438,31473,31473,31415,31485,31444,31444,31508,31514,31450,31415,31415,31438,31409,31392,31473,31479,31415,31497,31450,31462,31415,31392,31438,31415,31433,31438,31421,31421,44783144,65344,170,943,16239,1451,1622,0,0,1,3,0
Wait,15:36:09.178,31421,31444,31497,31427,31392,31444,31403,31386,31456,31409,31421,31427,31415,31438,31415,31415,31467,31409,31462,31450,31479,31520,31421,31456,31398,31380,31467,31456,31409,31467,31433,31432,44963448,65344,168,942,16239,1451,1622,0,0,1,3,0
Wait,15:36:09.361,31386,31438,31549,31450,31491,31456,31473,31456,31467,31473,31584,31491,31491,31502,31415,31421,31456,31427,31491,31467,31432,31479,31502,31497,31398,31380,31450,31584,31467,31549,31392,31467,45144416,65344,170,942,16239,1451,1622,0,0,1,3,0
Wait,15:36:09.461,31444,31421,31374,31427,31427,31462,31368,31421,31432,31462,31433,31432,31432,31398,31368,31497,31421,31409,31392,31444,31526,31526,31427,31403,31415,31427,31415,31438,31421,31473,31526,31479,45326480,65344,170,941,16239,1451,1622,0,0,1,3,0
Wait,15:36:09.561,31462,31438,31497,31485,31462,31485,31374,31386,31421,31450,31485,31491,31467,31444,31450,31432,31421,31409,31479,31485,31491,31485,31491,31421,31438,31351,31491,31497,31508,31537,31473,31357,45507316,65345,170,940,16239,1451,1622,0,0,1,3,0
Wait,15:36:09.661,31438,31444,31479,31374,31386,31421,31345,31444,31456,31421,31456,31369,31473,31462,31305,31415,31427,31403,31432,31433,31456,31427,31462,31409,31421,31386,31421,31462,31392,31473,31403,31444,45687316,65343,170,942,16239,1451,1622,0,0,1,3,0
Wait,15:36:09.760,31456,31456,31409,31462,31456,31456,31403,31427,31392,31444,31468,31444,31502,31421,31433,31514,31520,31421,31450,31415,31450,31473,31386,31462,31427,31369,31462,31473,31456,31473,31485,31438,45868944,65345,168,943,16239,1451,1622,0,0,1,3,0
Wait,15:36:09.783,31479,31398,31502,31467,31462,31427,31438,31497,31467,31450,31479,31403,31467,31491,31322,31444,31456,31398,31456,31438,31462,31444,31473,31508,31433,31409,31438,31415,31444,31549,31392,31485,46049292,65345,169,941,16239,1451,1622,0,0,1,3,0
Wait,15:36:09.961,31497,31403,31508,31479,31491,31456,31421,31421,31473,31433,31438,31450,31438,31502,31421,31444,31450,31369,31479,31502,31438,31421,31432,31392,31380,31374,31508,31479,31508,31473,31409,31485,46231752,65345,166,943,16239,1451,1622,0,0,1,3,0
Wait,15:36:10.061,31427,31421,31433,31427,31497,31444,31380,31328,31438,31403,31543,31526,31438,31432,31386,31345,31398,31403,31485,31427,31438,31514,31462,31403,31432,31374,31409,31444,31462,31526,31427,31462,46413860,65344,168,943,16239,1451,1622,0,0,1,3,0
Gesture 2,15:36:10.082,31462,31444,31409,31433,31456,31485,31415,31456,31450,31421,31479,31462,31415,31479,31450,31473,31438,31386,31444,31520,31456,31444,31415,31479,31502,31427,31491,31462,31427,31485,31398,31421,46594212,65343,168,943,16239,1451,1622,0,0,1,3,0
Gesture 2,15:36:10.261,31473,31467,31415,31392,31462,31438,31427,31415,31456,31438,31473,31403,31520,31479,31328,31444,31473,31433,31450,31497,31432,31456,31386,31398,31421,31380,31433,31409,31438,31467,31438,31467,46776456,65345,170,939,16239,1451,1622,0,0,1,3,0
Gesture 2,15:36:10.360,31456,31386,31526,31392,31473,31479,31450,31479,31392,31380,31543,31392,31456,31479,31409,31467,31462,31398,31467,31549,31444,31497,31433,31392,31462,31450,31462,31456,31392,31502,31427,31403,46957336,65346,169,941,16239,1451,1622,0,0,1,3,0
Gesture 2,15:36:10.461,31403,31374,31485,31415,31497,31456,31438,31473,31415,31409,31537,31450,31415,31456,31368,31456,31421,31444,31456,31421,31380,31456,31363,31485,31444,31450,31520,31473,31432,31485,31462,31479,47138084,65343,169,940,16239,1451,1622,0,0,1,3,0
Gesture 2,15:36:10.561,31479,31339,31485,31485,31427,31438,31421,31444,31473,31357,31479,31415,31485,31444,31380,31438,31444,31444,31409,31456,31351,31462,31467,31432,31421,31369,31467,31421,31491,31502,31386,31479,47318700,65344,167,938,16239,1451,1622,0,0,1,3,0
Gesture 2,15:36:10.661,31467,31369,31502,31415,31450,31520,31392,31432,31497,31392,31514,31421,31456,31508,31386,31433,31409,31438,31485,31508,31415,31561,31462,31456,31462,31415,31392,31467,31415,31485,31369,31433,47499052,65345,169,938,16239,1451,1622,0,0,1,3,0
Gesture 2,15:36:10.677,31462,31374,31485,31409,31479,31491,31392,31502,31467,31421,31491,31497,31502,31473,31386,31497,31479,31363,31462,31491,31485,31497,31514,31502,31497,31444,31473,31485,31462,31479,31363,31473,47679316,65346,168,941,16239,1451,1622,0,0,1,3,0
Gesture 2,15:36:10.783,31398,31369,31532,31432,31456,31444,31398,31415,31479,31415,31514,31438,31473,31456,31351,31421,31398,31363,31374,31444,31432,31543,31433,31456,31398,31386,31479,31456,31438,31502,31403,31409,47861732,65346,168,943,16239,1451,1622,0,0,1,3,0
Gesture 2,15:36:10.880,31450,31380,31409,31444,31502,31450,31398,31456,31403,31415,31432,31473,31438,31485,31409,31497,31438,31438,31549,31467,31497,31479,31403,31432,31462,31497,31502,31497,31485,31479,31450,31427,48043620,65344,169,942,16239,1451,1622,0,0,1,3,0
Gesture 2,15:36:11.061,31403,31467,31479,31438,31432,31398,31415,31444,31456,31450,31479,31502,31444,31415,31421,31415,31485,31374,31427,31421,31491,31543,31462,31438,31438,31339,31415,31415,31462,31433,31444,31485,48226036,65342,168,942,16239,1451,1622,0,0,1,3,0
Gesture 2,15:36:11.161,31386,31380,31427,31421,31485,31421,31427,31427,31374,31409,31491,31433,31473,31386,31374,31438,31398,31403,31473,31467,31421,31473,31369,31403,31491,31415,31467,31456,31444,31467,31421,31386,48407704,65344,168,940,16239,1451,1622,0,0,1,3,0
Gesture 2,15:36:11.261,31444,31468,31520,31421,31456,31438,31351,31433,31462,31403,31473,31427,31485,31497,31450,31438,31450,31386,31421,31479,31502,31497,31491,31438,31467,31403,31433,31415,31432,31532,31415,31450,48588144,65345,167,941,16239,1451,1622,0,0,1,3,0
Gesture 2,15:36:11.361,31450,31386,31467,31403,31508,31427,31450,31467,31403,31415,31467,31392,31491,31491,31456,31450,31432,31427,31479,31520,31392,31467,31427,31444,31438,31409,31421,31549,31444,31432,31363,31421,48769112,65345,169,943,16239,1451,1622,0,0,1,3,0
Gesture 2,15:36:11.461,31543,31456,31561,31450,31403,31409,31398,31421,31444,31386,31514,31508,31427,31403,31403,31427,31438,31415,31438,31491,31485,31508,31427,31491,31433,31409,31415,31438,31485,31502,31392,31479,48952052,65344,169,940,16239,1451,1622,0,0,1,3,0
Gesture 2,15:36:11.476,31432,31444,31450,31532,31456,31398,31392,31479,31403,31334,31467,31473,31473,31438,31380,31450,31427,31351,31415,31456,31444,31456,31398,31438,31450,31380,31421,31467,31444,31473,31444,31386,49134560,65346,167,938,16239,1451,1622,0,0,1,3,0
Gesture 2,15:36:11.661,31374,31403,31532,31444,31432,31421,31351,31479,31456,31386,31497,31462,31497,31479,31368,31456,31462,31345,31415,31473,31456,31450,31403,31479,31450,31398,31514,31473,31432,31444,31462,31497,49314652,65346,169,936,16239,1451,1622,0,0,1,3,0
Gesture 2,15:36:11.686,31433,31368,31514,31427,31444,31438,31409,31502,31433,31368,31467,31485,31444,31432,31415,31485,31444,31374,31409,31433,31427,31473,31415,31409,31427,31421,31398,31409,31427,31467,31386,31409,49496584,65346,167,945,16239,1451,1622,0,0,1,3,0
Gesture 2,15:36:11.781,31444,31380,31479,31450,31421,31450,31392,31427,31467,31386,31537,31438,31456,31450,31438,31502,31479,31403,31456,31520,31467,31479,31427,31432,31438,31438,31432,31456,31421,31543,31450,31438,49676892,65344,168,943,16239,1451,1622,0,0,1,3,0
Gesture 2,15:36:11.961,31415,31305,31502,31473,31450,31456,31398,31427,31421,31409,31514,31462,31467,31421,31403,31380,31462,31427,31462,31526,31409,31467,31438,31444,31409,31409,31438,31438,31403,31438,31322,31421,49858692,65345,169,944,16239,1451,1622,0,0,1,3,0
Gesture 2,15:36:11.980,31520,31409,31491,31467,31398,31433,31392,31456,31514,31403,31572,31473,31444,31392,31363,31467,31421,31398,31444,31467,31485,31543,31473,31456,31450,31415,31450,31462,31491,31520,31398,31444,50040888,65344,167,944,16239,1451,1622,0,0,1,3,0
Gesture 2,15:36:12.082,31427,31334,31421,31444,31497,31415,31415,31369,31479,31427,31508,31473,31479,31438,31398,31421,31456,31409,31491,31438,31456,31514,31299,31450,31473,31398,31462,31415,31450,31473,31386,31427,50222340,65346,169,947,16239,1451,1622,0,0,1,3,0
Gesture 2,15:36:12.178,31421,31403,31398,31520,31497,31491,31363,31532,31479,31479,31462,31473,31514,31502,31368,31438,31473,31438,31479,31491,31514,31473,31532,31497,31514,31392,31491,31473,31497,31473,31479,31450,50403964,65344,169,941,16239,1451,1622,0,0,1,3,0
Gesture 2,15:36:12.277,31479,31502,31444,31456,31497,31508,31328,31473,31549,31363,31473,31450,31427,31497,31351,31444,31398,31374,31502,31462,31473,31450,31415,31514,31392,31345,31444,31432,31491,31467,31415,31520,50586072,65344,166,939,16239,1451,1622,0,0,1,3,0
Gesture 2,15:36:12.381,31432,31438,31462,31497,31438,31473,31427,31497,31456,31403,31555,31462,31462,31479,31398,31491,31444,31462,31462,31485,31520,31514,31462,31473,31444,31450,31403,31502,31421,31462,31491,31462,50766028,65344,170,940,16239,1451,1622,0,0,1,3,0
Gesture 2,15:36:12.479,31473,31438,31497,31450,31398,31537,31392,31450,31479,31316,31462,31520,31462,31479,31392,31485,31514,31433,31502,31433,31409,31444,31450,31427,31532,31339,31438,31497,31520,31491,31380,31421,50947788,65346,168,938,16239,1451,1622,0,0,1,3,0
Gesture 2,15:36:12.585,31462,31409,31497,31502,31502,31497,31444,31491,31508,31369,31514,31467,31473,31485,31432,31508,31467,31444,31491,31485,31532,31532,31473,31479,31497,31386,31532,31473,31532,31561,31369,31467,51128624,65346,167,939,16239,1451,1622,0,0,1,3,0
Gesture 2,15:36:12.680,31368,31444,31392,31467,31467,31462,31363,31444,31502,31363,31532,31456,31409,31427,31363,31444,31462,31392,31409,31497,31438,31502,31444,31462,31398,31485,31398,31467,31462,31479,31403,31462,51309984,65346,170,939,16239,1451,1622,0,0,1,3,0
Gesture 2,15:36:12.779,31432,31403,31462,31363,31421,31415,31363,31368,31415,31398,31497,31421,31427,31444,31351,31427,31421,31374,31444,31421,31508,31491,31363,31438,31450,31427,31444,31432,31386,31491,31485,31462,51491700,65345,166,944,16239,1451,1622,0,0,1,3,0
Gesture 2,15:36:12.879,31438,31456,31473,31415,31438,31450,31374,31497,31368,31415,31502,31392,31456,31444,31368,31462,31450,31398,31497,31438,31491,31479,31374,31462,31479,31432,31438,31450,31462,31549,31403,31473,51673192,65345,169,940,16239,1451,1622,0,0,1,3,0
Gesture 2,15:36:12.981,31450,31398,31456,31444,31491,31403,31374,31432,31363,31374,31473,31432,31462,31450,31421,31421,31374,31403,31462,31473,31444,31485,31386,31485,31386,31351,31415,31497,31357,31497,31369,31456,51853328,65345,167,939,16239,1451,1622,0,0,1,3,0
Gesture 2,15:36:13.161,31432,31427,31450,31398,31433,31398,31432,31415,31432,31403,31444,31415,31485,31427,31421,31398,31520,31409,31450,31456,31438,31462,31403,31473,31462,31386,31369,31450,31415,31456,31374,31491,52033412,65346,168,941,16239,1451,1622,0,0,1,3,0
Gesture 2,15:36:13.261,31403,31386,31497,31497,31514,31374,31398,31403,31502,31363,31572,31502,31432,31456,31421,31502,31479,31386,31427,31473,31479,31456,31421,31485,31450,31380,31357,31444,31368,31526,31421,31403,52214600,65344,169,943,16239,1451,1622,0,0,1,3,0
Gesture 2,15:36:13.279,31520,31328,31508,31444,31467,31421,31398,31520,31415,31374,31479,31415,31427,31438,31380,31491,31462,31398,31444,31450,31444,31508,31462,31491,31433,31444,31467,31473,31450,31520,31398,31438,52395172,65343,169,944,16239,1451,1622,0,0,1,3,0
Gesture 2,15:36:13.461,31450,31403,31427,31502,31479,31427,31409,31403,31485,31345,31508,31427,31432,31421,31444,31421,31438,31380,31432,31473,31444,31444,31345,31456,31433,31427,31497,31444,31491,31467,31456,31392,52576532,65343,167,939,16239,1451,1622,0,0,1,3,0
Gesture 2,15:36:13.561,31508,31415,31456,31444,31491,31462,31427,31450,31444,31363,31444,31467,31403,31467,31438,31502,31444,31497,31427,31485,31450,31508,31467,31409,31479,31450,31444,31502,31462,31444,31369,31444,52756928,65345,167,941,16239,1451,1622,0,0,1,3,0
Gesture 2,15:36:13.661,31421,31392,31456,31392,31473,31450,31345,31456,31398,31357,31427,31427,31473,31432,31398,31456,31433,31392,31409,31432,31514,31479,31456,31427,31433,31432,31497,31473,31398,31473,31363,31450,52936620,65344,169,942,16239,1451,1622,0,0,1,3,0
Gesture 2,15:36:13.678,31508,31368,31456,31415,31421,31450,31415,31444,31456,31403,31433,31415,31438,31415,31380,31438,31403,31386,31398,31467,31462,31456,31462,31473,31357,31415,31485,31497,31432,31473,31334,31403,53117016,65346,167,936,16239,1451,1622,0,0,1,3,0
Gesture 2,15:36:13.861,31421,31380,31479,31467,31403,31438,31409,31433,31427,31392,31462,31433,31438,31415,31380,31415,31485,31421,31392,31427,31456,31467,31363,31415,31456,31409,31392,31450,31497,31526,31380,31380,53298332,65346,168,942,16239,1451,1622,0,0,1,3,0
Gesture 2,15:36:13.961,31427,31374,31467,31433,31462,31427,31409,31450,31456,31386,31467,31374,31467,31467,31403,31450,31403,31421,31456,31485,31450,31438,31415,31403,31433,31392,31467,31485,31421,31456,31374,31473,53480004,65345,167,943,16239,1451,1622,0,0,1,3,0
Gesture 2,15:36:14.061,31473,31322,31438,31462,31473,31409,31386,31444,31444,31438,31456,31432,31491,31415,31398,31357,31392,31386,31415,31409,31514,31508,31398,31485,31467,31316,31450,31403,31415,31491,31392,31444,53661108,65346,167,942,16239,1451,1622,0,0,1,3,0
Gesture 2,15:36:14.082,31485,31363,31491,31467,31427,31473,31427,31473,31450,31444,31537,31398,31467,31508,31456,31485,31491,31467,31479,31491,31473,31497,31473,31450,31473,31433,31491,31450,31421,31555,31421,31432,53841456,65343,167,943,16239,1451,1622,0,0,1,3,0
Gesture 2,15:36:14.261,31456,31386,31450,31427,31369,31345,31398,31427,31514,31398,31549,31427,31421,31450,31421,31462,31438,31415,31438,31421,31450,31485,31473,31450,31409,31299,31479,31450,31392,31520,31334,31409,54021460,65347,169,943,16239,1451,1622,0,0,1,3,0
Gesture 2,15:36:14.278,31427,31345,31438,31450,31438,31444,31427,31467,31526,31334,31491,31374,31427,31456,31421,31409,31456,31380,31438,31485,31450,31520,31456,31403,31438,31462,31427,31444,31467,31479,31334,31432,54201500,65345,171,942,16239,1451,1622,0,0,1,3,0
Gesture 2,15:36:14.460,31462,31438,31409,31421,31462,31357,31421,31363,31473,31386,31438,31415,31467,31398,31368,31508,31450,31380,31432,31450,31438,31514,31403,31491,31415,31386,31421,31462,31473,31456,31456,31450,54381636,65345,168,941,16239,1451,1622,0,0,1,3,0
Gesture 2,15:36:14.478,31462,31369,31421,31444,31479,31456,31392,31433,31433,31392,31392,31398,31485,31450,31409,31415,31485,31433,31479,31421,31485,31456,31392,31438,31479,31380,31444,31514,31398,31450,31363,31421,54563392,65344,167,938,16239,1451,1622,0,0,1,3,0
Gesture 2,15:36:14.578,31368,31380,31438,31456,31409,31444,31403,31485,31438,31444,31485,31467,31415,31392,31339,31450,31415,31357,31415,31415,31421,31561,31450,31462,31427,31386,31386,31392,31497,31514,31374,31485,54744488,65345,168,937,16239,1451,1622,0,0,1,3,0
Gesture 2,15:36:14.681,31444,31392,31479,31415,31473,31514,31403,31427,31421,31334,31450,31467,31462,31485,31409,31432,31432,31369,31526,31497,31479,31479,31415,31473,31409,31427,31502,31438,31392,31421,31322,31421,54924488,65344,168,939,16239,1451,1622,0,0,1,3,0
Gesture 2,15:36:14.779,31485,31403,31467,31520,31427,31479,31398,31450,31444,31462,31462,31532,31479,31467,31386,31427,31532,31392,31438,31450,31537,31497,31363,31485,31473,31450,31427,31415,31485,31514,31479,31462,55105940,65345,170,936,16239,1451,1622,0,0,1,3,0
Gesture 2,15:36:14.883,31415,31339,31409,31450,31514,31403,31392,31467,31450,31403,31456,31339,31427,31427,31339,31456,31432,31363,31514,31462,31450,31462,31427,31380,31444,31392,31502,31462,31438,31485,31409,31427,55285988,65346,170,942,16239,1451,1622,0,0,1,3,0
Gesture 2,15:36:14.980,31497,31456,31532,31427,31450,31450,31421,31444,31467,31450,31520,31491,31520,31473,31444,31444,31456,31351,31432,31502,31444,31479,31491,31485,31444,31432,31450,31386,31561,31491,31392,31438,55467700,65342,167,943,16239,1451,1622,0,0,1,3,0
Gesture 2,15:36:15.085,31363,31432,31456,31467,31485,31444,31421,31456,31491,31432,31427,31392,31427,31450,31432,31456,31479,31374,31433,31485,31502,31467,31467,31421,31467,31357,31433,31450,31433,31462,31404,31467,55648180,65345,169,942,16239,1451,1622,0,0,1,3,0
Gesture 2,15:36:15.261,31450,31403,31444,31485,31444,31398,31374,31462,31462,31363,31491,31421,31433,31450,31334,31444,31427,31339,31485,31415,31537,31462,31398,31549,31409,31421,31444,31456,31485,31467,31421,31456,55828264,65344,168,946,16239,1451,1622,0,0,1,3,0
Gesture 2,15:36:15.361,31403,31368,31543,31462,31415,31438,31427,31438,31438,31403,31491,31491,31444,31467,31403,31456,31485,31403,31520,31450,31514,31473,31456,31456,31432,31485,31485,31456,31450,31450,31415,31415,56008576,65344,169,943,16239,1451,1622,0,0,1,3,0
Gesture 2,15:36:15.379,31491,31438,31502,31456,31485,31444,31421,31485,31543,31432,31520,31433,31444,31479,31427,31467,31462,31392,31432,31415,31467,31485,31462,31502,31491,31392,31456,31427,31462,31479,31450,31508,56188708,65344,169,943,16239,1451,1622,0,0,1,3,0
Gesture 2,15:36:15.561,31380,31415,31456,31497,31479,31502,31403,31467,31444,31409,31485,31502,31508,31444,31392,31491,31438,31427,31497,31450,31537,31427,31403,31438,31403,31339,31502,31462,31456,31392,31380,31415,56368572,65346,167,939,16239,1451,1622,0,0,1,3,0
Gesture 2,15:36:15.660,31409,31444,31520,31537,31467,31444,31386,31467,31491,31427,31520,31467,31473,31438,31432,31491,31462,31415,31467,31485,31590,31497,31432,31508,31497,31374,31467,31421,31450,31485,31392,31456,56548924,65346,170,937,16239,1451,1622,0,0,1,3,0
Gesture 2,15:36:15.761,31398,31450,31421,31532,31502,31508,31363,31421,31427,31438,31450,31444,31386,31485,31403,31479,31520,31433,31502,31485,31508,31479,31502,31473,31427,31485,31462,31415,31537,31450,31438,31462,56730284,65344,170,934,16239,1451,1622,0,0,1,3,0
Gesture 2,15:36:15.861,31462,31433,31537,31578,31549,31467,31450,31473,31555,31444,31508,31479,31491,31491,31444,31502,31479,31479,31479,31485,31502,31561,31444,31497,31520,31473,31473,31520,31508,31543,31386,31438,56910588,65344,167,941,16239,1451,1622,0,0,1,3,0
Gesture 2,15:36:15.961,31456,31444,31450,31502,31427,31438,31415,31456,31421,31421,31491,31438,31491,31502,31444,31421,31467,31409,31491,31479,31491,31502,31409,31462,31392,31374,31508,31467,31520,31520,31368,31456,57092352,65345,169,943,16239,1451,1622,0,0,1,3,0
Gesture 2,15:36:16.061,31508,31398,31462,31502,31421,31450,31450,31485,31473,31409,31514,31415,31491,31473,31438,31450,31532,31456,31421,31444,31549,31497,31403,31502,31485,31438,31479,31491,31456,31549,31392,31462,57272924,65344,170,942,16239,1451,1622,0,0,1,3,0
Gesture 2,15:36:16.083,31433,31462,31502,31479,31456,31438,31363,31403,31456,31444,31485,31380,31502,31467,31438,31485,31421,31444,31444,31485,31462,31491,31438,31450,31427,31380,31491,31409,31450,31491,31473,31485,57454420,65345,170,941,16239,1451,1622,0,0,1,3,0
Gesture 2,15:36:16.261,31479,31398,31497,31456,31450,31438,31432,31473,31450,31462,31491,31473,31473,31508,31409,31485,31462,31415,31427,31444,31543,31438,31415,31462,31462,31450,31444,31514,31508,31438,31462,31456,57635872,65344,167,941,16239,1451,1622,0,0,1,3,0
Gesture 2,15:36:16.280,31386,31462,31421,31497,31456,31409,31380,31479,31485,31421,31549,31427,31456,31468,31380,31462,31450,31409,31409,31479,31433,31491,31444,31444,31392,31363,31433,31438,31473,31502,31409,31450,57817712,65347,168,944,16239,1451,1622,0,0,1,3,0
Gesture 2,15:36:16.461,31438,31427,31508,31508,31502,31473,31473,31485,31479,31403,31421,31485,31508,31497,31403,31479,31444,31421,31502,31497,31456,31467,31467,31444,31497,31392,31491,31520,31497,31485,31374,31450,57999736,65346,168,940,16239,1451,1622,0,0,1,3,0
Gesture 2,15:36:16.561,31421,31415,31438,31502,31438,31485,31398,31462,31485,31456,31485,31438,31456,31479,31433,31421,31438,31398,31508,31473,31450,31386,31450,31450,31456,31415,31450,31438,31508,31520,31409,31462,58181012,65345,168,941,16239,1451,1622,0,0,1,3,0
Gesture 2,15:36:16.661,31438,31403,31502,31473,31485,31427,31368,31409,31403,31415,31450,31421,31491,31502,31368,31432,31432,31421,31473,31444,31514,31508,31485,31479,31514,31415,31491,31497,31485,31433,31403,31467,58361364,65343,166,941,16239,1451,1622,0,0,1,3,0
Gesture 2,15:36:16.677,31432,31421,31444,31479,31526,31456,31427,31467,31473,31374,31444,31409,31497,31438,31351,31502,31398,31392,31433,31467,31485,31467,31368,31444,31485,31421,31450,31467,31444,31456,31427,31438,58541320,65346,169,938,16239,1451,1622,0,0,1,3,0
Gesture 2,15:36:16.861,31473,31409,31467,31450,31421,31427,31403,31438,31433,31368,31543,31432,31438,31427,31421,31491,31537,31380,31485,31444,31485,31526,31438,31456,31491,31380,31473,31450,31456,31462,31421,31462,58721100,65345,168,943,16239,1451,1622,0,0,1,3,0
Gesture 2,15:36:16.961,31462,31398,31444,31421,31467,31456,31409,31456,31456,31403,31450,31502,31473,31444,31380,31438,31415,31427,31485,31520,31491,31502,31398,31456,31403,31398,31473,31473,31491,31456,31479,31444,58902240,65345,169,939,16239,1451,1622,0,0,1,3,0
Gesture 2,15:36:17.061,31427,31334,31467,31572,31427,31491,31357,31462,31479,31421,31485,31491,31433,31380,31432,31467,31421,31421,31514,31473,31497,31502,31427,31433,31502,31433,31432,31450,31514,31467,31351,31444,59082104,65343,168,943,16239,1451,1622,0,0,1,3,0
Gesture 2,15:36:17.080,31421,31433,31415,31415,31497,31467,31421,31409,31421,31438,31485,31427,31403,31491,31438,31497,31473,31369,31485,31462,31456,31543,31462,31520,31456,31438,31502,31479,31456,31479,31392,31432,59261840,65344,168,942,16239,1451,1622,0,0,1,3,0
Gesture 2,15:36:17.181,31444,31380,31508,31444,31433,31432,31421,31467,31380,31334,31392,31468,31479,31462,31438,31508,31462,31427,31456,31444,31421,31438,31409,31444,31497,31421,31398,31456,31421,31473,31415,31462,59441316,65344,169,943,16239,1451,1622,0,0,1,3,0
Gesture 2,15:36:17.361,31415,31456,31473,31479,31502,31473,31374,31427,31427,31467,31456,31462,31497,31508,31398,31444,31502,31403,31502,31421,31409,31462,31386,31432,31433,31427,31479,31462,31456,31467,31473,31462,59622460,65346,166,944,16239,1451,1622,0,0,1,3,0
Gesture 2,15:36:17.461,31392,31438,31398,31456,31433,31409,31415,31479,31421,31497,31456,31438,31409,31427,31380,31403,31456,31450,31450,31444,31508,31526,31543,31421,31473,31363,31479,31432,31462,31456,31479,31444,59802904,65345,168,942,16239,1451,1622,0,0,1,3,0
Gesture 2,15:36:17.561,31427,31386,31438,31467,31473,31456,31427,31450,31421,31456,31462,31403,31502,31532,31357,31462,31473,31403,31462,31456,31409,31444,31543,31450,31450,31421,31473,31491,31444,31444,31398,31415,59984400,65344,168,943,16239,1451,1622,0,0,1,3,0
Gesture 2,15:36:17.661,31374,31432,31491,31444,31508,31485,31386,31444,31438,31403,31433,31427,31473,31467,31357,31409,31479,31299,31485,31415,31508,31427,31467,31491,31456,31403,31479,31432,31467,31432,31427,31473,60164136,65347,169,941,16239,1451,1622,0,0,1,3,0
Gesture 2,15:36:17.760,31450,31427,31421,31456,31444,31467,31450,31427,31467,31398,31526,31433,31467,31450,31438,31427,31450,31450,31479,31409,31462,31450,31456,31473,31427,31438,31467,31444,31491,31467,31322,31433,60343652,65344,167,941,16239,1451,1622,0,0,1,3,0
Gesture 2,15:36:17.861,31409,31444,31485,31485,31462,31462,31427,31432,31433,31339,31497,31427,31398,31427,31444,31491,31450,31456,31462,31467,31450,31444,31462,31450,31450,31450,31444,31427,31462,31473,31403,31432,60523260,65346,169,939,16239,1451,1622,0,0,1,3,0
Gesture 2,15:36:17.961,31421,31345,31444,31456,31491,31438,31456,31479,31444,31380,31421,31403,31427,31479,31456,31473,31403,31386,31508,31508,31473,31392,31444,31462,31450,31403,31508,31427,31427,31485,31374,31432,60703172,65345,168,937,16239,1451,1622,0,0,1,3,0
Gesture 2,15:36:18.060,31438,31409,31473,31485,31415,31444,31444,31497,31450,31421,31438,31502,31485,31467,31392,31462,31456,31380,31456,31432,31485,31479,31421,31462,31467,31357,31450,31485,31415,31479,31409,31438,60882996,65345,167,939,16239,1451,1622,0,0,1,3,0
Gesture 2,15:36:18.161,31421,31392,31450,31473,31421,31473,31421,31415,31421,31450,31462,31462,31438,31433,31415,31473,31450,31456,31427,31508,31421,31497,31473,31450,31444,31502,31450,31485,31491,31473,31427,31427,61062776,65346,168,944,16239,1451,1622,0,0,1,3,0
Gesture 2,15:36:18.261,31433,31491,31462,31502,31456,31497,31351,31479,31415,31462,31502,31485,31433,31473,31444,31386,31467,31392,31415,31368,31432,31438,31508,31450,31444,31398,31456,31380,31514,31467,31438,31467,61244928,65344,168,945,16239,1451,1622,0,0,1,3,0
Gesture 2,15:36:18.278,31479,31432,31444,31427,31456,31467,31368,31456,31409,31351,31467,31403,31450,31444,31398,31444,31467,31334,31450,31479,31491,31415,31473,31409,31438,31368,31485,31467,31433,31433,31339,31456,61424360,65345,171,942,16239,1451,1622,0,0,1,3,0
Gesture 2,15:36:18.461,31415,31421,31497,31427,31433,31427,31415,31427,31462,31438,31491,31497,31427,31433,31415,31433,31421,31403,31456,31450,31450,31479,31473,31467,31462,31421,31433,31386,31485,31491,31421,31456,61604448,65342,168,943,16239,1451,1622,0,0,1,3,0
Gesture 2,15:36:18.561,31421,31398,31514,31415,31491,31467,31368,31421,31415,31438,31473,31421,31462,31438,31392,31368,31438,31363,31520,31502,31456,31508,31473,31421,31403,31409,31462,31456,31473,31444,31369,31473,61784100,65345,168,942,16239,1451,1622,0,0,1,3,0
Gesture 2,15:36:18.577,31444,31438,31491,31497,31444,31479,31415,31438,31427,31398,31479,31479,31403,31462,31450,31450,31456,31386,31450,31456,31479,31502,31497,31450,31508,31421,31473,31386,31479,31485,31450,31502,61963220,65345,169,943,16239,1451,1622,0,0,1,3,0
Gesture 2,15:36:18.762,31421,31374,31491,31438,31386,31398,31409,31450,31415,31398,31520,31485,31444,31415,31287,31409,31404,31374,31462,31450,31450,31473,31456,31467,31328,31374,31479,31432,31479,31398,31357,31415,62142824,65346,168,939,16239,1451,1622,0,0,1,3,0
Gesture 2,15:36:18.861,31444,31456,31491,31537,31450,31491,31374,31404,31473,31485,31514,31526,31462,31479,31456,31520,31491,31427,31432,31467,31485,31520,31467,31462,31293,31386,31450,31520,31438,31514,31514,31462,62324316,65344,167,939,16239,1451,1622,0,0,1,3,0
Gesture 2,15:36:18.878,31456,31363,31450,31415,31450,31520,31339,31270,31427,31374,31502,31433,31462,31456,31369,31421,31444,31380,31456,31450,31421,31427,31450,31479,31433,31351,31497,31415,31374,31438,31380,31456,62504096,65345,171,939,16239,1451,1622,0,0,1,3,0
Gesture 2,15:36:18.981,31467,31537,31427,31473,31427,31392,31403,31386,31473,31537,31502,31543,31433,31491,31386,31287,31491,31427,31462,31467,31497,31491,31444,31497,31398,31438,31398,31473,31491,31462,31485,31427,62685328,65346,169,938,16239,1451,1622,0,0,1,3,0
Gesture 2,15:36:19.161,31438,31409,31497,31415,31427,31456,31374,31444,31450,31415,31462,31432,31409,31456,31403,31433,31374,31403,31467,31467,31502,31444,31491,31444,31491,31398,31467,31467,31403,31456,31403,31415,62864800,65344,169,944,16239,1451,1622,0,0,1,3,0
Gesture 2,15:36:19.261,31438,31403,31491,31462,31497,31508,31427,31462,31497,31398,31479,31543,31456,31514,31473,31450,31287,31374,31497,31450,31514,31479,31532,31520,31532,31409,31543,31456,31433,31479,31444,31491,63044884,65345,169,942,16239,1451,1622,0,0,1,3,0
Gesture 2,15:36:19.279,31421,31456,31450,31444,31485,31479,31322,31392,31450,31438,31403,31403,31444,31427,31316,31485,31467,31363,31438,31450,31415,31462,31432,31415,31317,31386,31427,31438,31444,31456,31357,31433,63224708,65344,169,941,16239,1451,1622,0,0,1,3,0
Gesture 2,15:36:19.378,31427,31403,31467,31427,31427,31403,31456,31561,31491,31450,31537,31456,31450,31479,31363,31311,31235,31427,31508,31444,31473,31508,31473,31467,31508,31444,31497,31432,31444,31508,31438,31491,63406336,65345,167,943,16239,1451,1622,0,0,1,3,0
Gesture 2,15:36:19.561,31415,31432,31508,31421,31409,31462,31369,31328,31456,31398,31479,31450,31427,31491,31403,31380,31357,31369,31467,31398,31467,31497,31409,31444,31293,31380,31427,31473,31392,31508,31392,31386,63585852,65343,170,943,16239,1451,1622,0,0,1,3,0
Gesture 2,15:36:19.661,31438,31403,31421,31497,31444,31537,31450,31316,31450,31462,31520,31479,31479,31520,31444,31404,31369,31421,31514,31502,31456,31491,31502,31508,31432,31467,31438,31456,31502,31502,31415,31467,63766292,65347,168,939,16239,1451,1622,0,0,1,3,0
Gesture 2,15:36:19.678,31438,31386,31432,31392,31450,31438,31369,31328,31438,31409,31462,31386,31514,31456,31409,31299,31258,31368,31427,31479,31444,31450,31403,31444,31421,31409,31438,31456,31409,31409,31427,31444,63945808,65344,167,939,16239,1451,1622,0,0,1,3,0
Gesture 2,15:36:19.778,31345,31403,31485,31444,31421,31403,31368,31299,31351,31368,31485,31479,31462,31456,31398,31421,31369,31433,31450,31502,31409,31514,31473,31421,31386,31421,31444,31456,31415,31514,31374,31462,64125764,65345,168,942,16239,1451,1622,0,0,1,3,0
Gesture 2,15:36:19.879,31462,31526,31409,31433,31462,31467,31334,31398,31473,31380,31473,31462,31444,31421,31339,31467,31380,31328,31462,31479,31508,31473,31357,31438,31183,31433,31502,31467,31491,31386,31467,31427,64306996,65346,169,938,16239,1451,1622,0,0,1,3,0
Gesture 3,15:36:19.978,31392,31427,31427,31467,31421,31462,31415,31543,31380,31427,31502,31456,31462,31456,31415,31247,31241,31398,31473,31421,31345,31450,31386,31409,31438,31380,31473,31432,31520,31473,31392,31432,64488228,65346,169,939,16239,1451,1622,0,0,1,3,0
Gesture 3,15:36:20.160,31415,31444,31433,31456,31427,31456,31351,31357,31473,31368,31462,31450,31456,31409,31386,31421,31415,31386,31398,31502,31438,31497,31409,31485,31258,31363,31415,31456,31450,31450,31409,31438,64668056,65345,169,942,16239,1451,1622,0,0,1,3,0
Gesture 3,15:36:20.180,31450,31345,31479,31403,31444,31520,31374,31438,31450,31380,31456,31432,31444,31473,31380,31229,31311,31427,31508,31444,31456,31485,31456,31421,31450,31456,31508,31467,31444,31456,31403,31462,64848052,65344,170,940,16239,1451,1622,0,0,1,3,0
Gesture 3,15:36:20.360,31444,31403,31409,31433,31427,31450,31427,31299,31456,31409,31473,31438,31415,31444,31363,31351,31270,31339,31398,31450,31526,31427,31491,31450,31456,31363,31462,31444,31421,31433,31386,31392,65027528,65344,171,943,16239,1451,1622,0,0,1,3,0
Gesture 3,15:36:20.460,31502,31403,31485,31403,31438,31456,31392,31450,31479,31456,31467,31427,31462,31502,31380,31293,31310,31345,31450,31479,31514,31450,31543,31520,31456,31421,31456,31502,31456,31427,31450,31444,65207704,65345,170,942,16239,1451,1622,0,0,1,3,0
Gesture 3,15:36:20.477,31473,31432,31502,31403,31409,31438,31363,31293,31479,31368,31398,31392,31462,31409,31398,31473,31386,31369,31491,31433,31456,31456,31456,31467,31316,31392,31427,31467,31409,31479,31467,31432,65387880,65344,168,943,16239,1451,1622,0,0,1,3,0
Gesture 3,15:36:20.660,31398,31421,31450,31456,31444,31444,31409,31247,31374,31398,31427,31467,31450,31421,31415,31456,31369,31386,31456,31491,31427,31432,31491,31398,31345,31409,31432,31438,31491,31456,31421,31415,65567656,65344,167,942,16239,1451,1622,0,0,1,3,0
Gesture 3,15:36:20.760,31409,31473,31485,31421,31450,31444,31368,31334,31497,31473,31479,31450,31456,31473,31392,31485,31456,31351,31433,31427,31526,31508,31502,31491,31247,31438,31450,31485,31398,31409,31409,31433,65747832,65344,170,942,16239,1451,1622,0,0,1,3,0
Gesture 3,15:36:20.860,31427,31403,31479,31456,31514,31467,31409,31276,31433,31456,31497,31433,31462,31502,31392,31462,31398,31409,31456,31526,31479,31491,31450,31403,31293,31322,31450,31415,31456,31491,31398,31403,65927960,65345,169,937,16239,1451,1622,0,0,1,3,0
Gesture 3,15:36:20.879,31450,31462,31467,31491,31497,31485,31462,31502,31485,31444,31473,31473,31438,31497,31444,31316,31334,31421,31520,31502,31532,31462,31427,31514,31444,31403,31462,31485,31462,31421,31491,31502,66109016,65344,165,937,16239,1451,1622,0,0,1,3,0
Gesture 3,15:36:20.982,31444,31357,31450,31392,31479,31473,31392,31456,31433,31369,31497,31398,31485,31491,31368,31241,31287,31421,31456,31473,31403,31462,31409,31403,31491,31427,31444,31444,31450,31421,31392,31433,66289496,65345,169,944,16239,1451,1622,0,0,1,3,0
Gesture 3,15:36:21.160,31450,31462,31438,31467,31491,31485,31374,31293,31438,31409,31497,31456,31485,31467,31403,31450,31467,31392,31467,31433,31508,31497,31421,31450,31264,31363,31491,31438,31491,31462,31462,31456,66471252,65344,166,946,16239,1451,1622,0,0,1,3,0
Gesture 3,15:36:21.260,31479,31415,31462,31409,31415,31497,31403,31264,31479,31462,31450,31467,31421,31502,31409,31444,31462,31386,31479,31432,31444,31456,31403,31450,31398,31421,31450,31398,31467,31479,31409,31456,66651912,65345,168,943,16239,1451,1622,0,0,1,3,0
Gesture 3,15:36:21.360,31456,31392,31403,31497,31462,31444,31444,31520,31444,31380,31456,31438,31462,31456,31380,31334,31252,31427,31491,31479,31485,31438,31438,31467,31444,31415,31444,31450,31444,31479,31485,31432,66831952,65343,169,946,16239,1451,1622,0,0,1,3,0
Gesture 3,15:36:21.460,31392,31502,31368,31421,31473,31491,31427,31281,31433,31467,31415,31502,31467,31450,31438,31427,31456,31380,31462,31497,31514,31462,31543,31462,31229,31363,31485,31467,31450,31427,31438,31421,67013092,65344,168,940,16239,1451,1622,0,0,1,3,0
Gesture 3,15:36:21.477,31456,31433,31450,31508,31438,31456,31386,31369,31427,31421,31444,31479,31485,31467,31398,31374,31462,31433,31456,31409,31526,31491,31444,31444,31281,31403,31409,31491,31497,31456,31357,31427,67193264,65344,168,940,16239,1451,1622,0,0,1,3,0
Gesture 3,15:36:21.660,31368,31491,31462,31462,31433,31415,31444,31374,31444,31456,31403,31421,31467,31473,31386,31287,31409,31398,31427,31432,31532,31537,31479,31479,31351,31450,31473,31444,31415,31508,31497,31433,67374936,65346,170,941,16239,1451,1622,0,0,1,3,0
Gesture 3,15:36:21.760,31409,31368,31421,31403,31444,31502,31374,31450,31450,31438,31415,31456,31403,31450,31409,31479,31374,31380,31467,31497,31473,31438,31392,31415,31369,31380,31473,31415,31415,31438,31427,31432,67556432,65345,168,938,16239,1451,1622,0,0,1,3,0
Gesture 3,15:36:21.860,31421,31502,31485,31537,31398,31502,31415,31334,31415,31473,31467,31456,31368,31462,31427,31409,31421,31421,31444,31444,31479,31415,31409,31450,31316,31403,31502,31427,31502,31462,31502,31462,67738280,65346,166,942,16239,1451,1622,0,0,1,3,0
Gesture 3,15:36:21.960,31508,31432,31467,31433,31438,31479,31415,31363,31456,31450,31543,31473,31427,31450,31386,31258,31334,31409,31462,31514,31508,31421,31502,31433,31427,31427,31450,31444,31403,31502,31438,31438,67918496,65345,168,948,16239,1451,1622,0,0,1,3,0
Gesture 3,15:36:21.993,31456,31468,31485,31514,31421,31467,31432,31386,31403,31468,31497,31479,31409,31409,31374,31310,31305,31444,31450,31462,31450,31462,31491,31462,31467,31398,31421,31398,31514,31537,31485,31467,68099992,65344,166,943,16239,1451,1622,0,0,1,3,0
Gesture 3,15:36:22.081,31444,31427,31421,31479,31532,31380,31409,31386,31403,31444,31491,31473,31502,31485,31427,31386,31398,31467,31473,31444,31502,31555,31479,31421,31339,31444,31421,31467,31467,31467,31462,31432,68279552,65347,168,943,16239,1451,1622,0,0,1,3,0
Gesture 3,15:36:22.180,31409,31392,31514,31467,31514,31462,31432,31386,31456,31456,31467,31479,31479,31462,31427,31421,31357,31427,31438,31467,31526,31467,31497,31514,31432,31374,31479,31450,31467,31520,31438,31427,68459552,65344,168,942,16239,1451,1622,0,0,1,3,0
Gesture 3,15:36:22.279,31438,31467,31398,31502,31491,31403,31386,31462,31456,31467,31491,31491,31479,31386,31409,31276,31392,31374,31438,31444,31520,31467,31532,31485,31403,31427,31392,31456,31462,31485,31432,31444,68640736,65345,167,944,16239,1451,1622,0,0,1,3,0
Gesture 3,15:36:22.378,31427,31497,31485,31491,31427,31467,31380,31357,31473,31473,31462,31467,31467,31409,31380,31467,31467,31421,31433,31532,31520,31438,31473,31403,31229,31438,31421,31502,31409,31462,31473,31421,68822056,65343,166,942,16239,1451,1622,0,0,1,3,0
Gesture 3,15:36:22.480,31508,31444,31502,31415,31485,31386,31380,31258,31473,31427,31450,31450,31444,31462,31403,31444,31485,31421,31398,31433,31467,31491,31520,31514,31281,31374,31421,31479,31421,31473,31363,31421,69001920,65345,167,943,16239,1451,1622,0,0,1,3,0
Gesture 3,15:36:22.580,31467,31508,31479,31514,31479,31432,31485,31467,31433,31421,31444,31467,31421,31485,31485,31316,31287,31491,31432,31502,31532,31497,31485,31485,31473,31450,31479,31473,31479,31561,31508,31462,69182360,65345,168,943,16239,1451,1622,0,0,1,3,0
Gesture 3,15:36:22.678,31421,31497,31450,31415,31444,31392,31339,31398,31497,31467,31462,31462,31467,31462,31392,31293,31258,31450,31444,31467,31473,31462,31450,31450,31415,31427,31462,31421,31514,31502,31473,31421,69363760,65346,168,938,16239,1451,1622,0,0,1,3,0
Gesture 3,15:36:22.777,31514,31467,31485,31433,31450,31491,31438,31444,31427,31450,31502,31467,31520,31456,31462,31485,31415,31339,31514,31456,31502,31444,31438,31456,31473,31403,31532,31479,31467,31467,31473,31438,69544160,65345,170,940,16239,1451,1622,0,0,1,3,0
Gesture 3,15:36:22.879,31444,31450,31520,31438,31450,31433,31386,31561,31438,31398,31491,31508,31537,31409,31386,31276,31252,31438,31415,31502,31526,31502,31473,31479,31462,31421,31398,31497,31462,31467,31444,31473,69724424,65345,168,935,16239,1451,1622,0,0,1,3,0
Gesture 3,15:36:22.983,31491,31409,31462,31450,31485,31444,31368,31334,31526,31456,31462,31508,31514,31479,31444,31485,31421,31444,31444,31479,31491,31456,31485,31462,31346,31438,31456,31514,31502,31479,31467,31491,69904776,65347,172,937,16239,1449,1624,0,0,1,3,0
Gesture 3,15:36:23.093,31409,31421,31444,31432,31467,31374,31415,31206,31433,31392,31415,31444,31479,31427,31374,31467,31403,31432,31409,31485,31479,31473,31433,31433,31258,31351,31444,31456,31450,31473,31374,31462,70084864,65345,169,924,16239,1448,1625,0,0,1,3,0
Gesture 3,15:36:23.178,31374,31438,31462,31555,31462,31520,31392,31369,31456,31467,31508,31497,31432,31438,31444,31409,31316,31392,31456,31502,31526,31532,31479,31479,31415,31392,31450,31520,31520,31497,31479,31485,70266136,65343,168,947,16238,1451,1628,0,0,1,3,0
Gesture 3,15:36:23.282,31438,31444,31502,31450,31479,31432,31363,31328,31508,31421,31473,31444,31473,31497,31415,31421,31421,31444,31456,31450,31491,31427,31462,31467,31299,31392,31403,31467,31438,31514,31374,31386,70446712,65344,168,946,16238,1452,1628,0,0,1,3,0
Gesture 3,15:36:23.382,31403,31467,31497,31473,31532,31485,31438,31363,31462,31456,31508,31467,31456,31421,31485,31526,31502,31456,31462,31456,31502,31508,31473,31444,31403,31398,31462,31450,31497,31438,31456,31444,70627456,65346,170,939,16238,1452,1628,0,0,1,3,0
Gesture 3,15:36:23.486,31444,31427,31485,31526,31467,31467,31392,31229,31502,31374,31456,31450,31520,31374,31351,31427,31345,31386,31409,31497,31415,31433,31444,31543,31322,31421,31444,31421,31485,31456,31409,31514,70809784,65346,168,940,16238,1452,1628,0,0,1,3,0
Gesture 3,15:36:23.580,31467,31462,31497,31450,31491,31456,31392,31346,31438,31421,31467,31491,31485,31462,31392,31485,31508,31403,31438,31479,31520,31520,31450,31485,31409,31368,31479,31497,31415,31514,31438,31526,70989920,65344,166,941,16238,1452,1628,0,0,1,3,0
Gesture 3,15:36:23.682,31497,31508,31438,31462,31467,31427,31374,31438,31514,31491,31432,31537,31456,31433,31369,31258,31380,31409,31421,31450,31473,31485,31508,31502,31392,31374,31415,31467,31462,31444,31444,31537,71171456,65344,168,942,16238,1452,1628,0,0,1,3,0
Gesture 3,15:36:23.780,31438,31473,31462,31491,31473,31444,31403,31264,31497,31432,31473,31491,31514,31462,31392,31462,31462,31403,31438,31485,31537,31456,31456,31438,31345,31438,31438,31491,31485,31473,31456,31432,71353304,65346,165,941,16238,1452,1628,0,0,1,3,0
Gesture 3,15:36:23.881,31532,31450,31485,31450,31450,31369,31403,31427,31479,31427,31491,31462,31450,31398,31380,31456,31334,31374,31462,31462,31502,31438,31508,31497,31473,31392,31438,31532,31555,31537,31473,31491,71533696,65345,169,939,16238,1452,1628,0,0,1,3,0
Gesture 3,15:36:23.979,31432,31456,31427,31473,31438,31421,31415,31409,31450,31444,31549,31555,31456,31444,31386,31491,31421,31374,31444,31497,31555,31532,31467,31444,31276,31444,31503,31491,31502,31479,31532,31456,71715632,65345,167,939,16238,1452,1628,0,0,1,3,0
Gesture 3,15:36:24.082,31427,31508,31514,31537,31485,31456,31421,31479,31508,31485,31508,31485,31485,31450,31386,31363,31334,31363,31403,31491,31502,31520,31467,31462,31421,31403,31462,31427,31508,31467,31467,31508,71897520,65344,167,942,16238,1452,1628,0,0,1,3,0
Gesture 3,15:36:24.178,31467,31450,31444,31473,31485,31374,31368,31438,31444,31433,31432,31549,31497,31415,31345,31276,31369,31409,31392,31438,31491,31567,31491,31497,31427,31386,31433,31497,31497,31444,31473,31462,72079328,65343,168,944,16238,1452,1628,0,0,1,3,0
Gesture 3,15:36:24.282,31456,31438,31479,31479,31532,31473,31357,31497,31491,31438,31456,31485,31514,31450,31462,31317,31369,31403,31421,31479,31491,31421,31491,31462,31456,31409,31415,31520,31438,31502,31403,31467,72259816,65347,167,944,16238,1452,1628,0,0,1,3,0
Gesture 3,15:36:24.379,31473,31432,31479,31526,31491,31456,31433,31491,31462,31386,31444,31427,31508,31473,31409,31264,31473,31421,31456,31479,31467,31467,31444,31462,31427,31462,31473,31450,31421,31491,31421,31438,72440736,65342,167,946,16238,1452,1628,0,0,1,3,0
Gesture 3,15:36:24.480,31398,31450,31456,31427,31421,31427,31386,31415,31432,31427,31514,31409,31473,31462,31363,31438,31497,31368,31450,31456,31438,31514,31432,31502,31409,31398,31444,31438,31421,31502,31363,31532,72621264,65345,167,947,16238,1452,1628,0,0,1,3,0
Gesture 3,15:36:24.599,31444,31473,31456,31456,31456,31409,31427,31421,31497,31415,31409,31479,31491,31462,31415,31398,31409,31374,31421,31456,31502,31555,31433,31467,31363,31427,31497,31479,31467,31532,31456,31438,72801920,65345,170,938,16238,1452,1628,0,0,1,3,0
Gesture 3,15:36:24.681,31520,31403,31491,31467,31497,31427,31438,31502,31485,31368,31497,31473,31502,31438,31479,31282,31334,31357,31467,31485,31549,31473,31537,31479,31491,31415,31456,31438,31438,31467,31444,31467,72982360,65346,168,941,16238,1452,1628,0,0,1,3,0
Gesture 3,15:36:24.860,31479,31433,31462,31462,31491,31415,31339,31473,31450,31450,31508,31444,31508,31462,31433,31293,31363,31432,31444,31456,31508,31532,31462,31491,31403,31456,31409,31473,31456,31467,31415,31386,73162800,65345,169,939,16238,1452,1628,0,0,1,3,0
Gesture 3,15:36:24.960,31520,31432,31485,31497,31467,31491,31363,31462,31520,31438,31491,31497,31502,31444,31415,31317,31526,31456,31473,31485,31549,31502,31438,31526,31456,31392,31508,31485,31450,31514,31485,31497,73343104,65344,167,940,16238,1452,1628,0,0,1,3,0
Gesture 3,15:36:24.978,31462,31433,31456,31398,31392,31444,31374,31450,31438,31479,31491,31456,31485,31409,31339,31497,31438,31322,31421,31520,31456,31473,31514,31491,31200,31351,31380,31549,31467,31415,31392,31421,73523800,65342,167,943,16238,1452,1628,0,0,1,3,0
Gesture 3,15:36:25.083,31467,31479,31450,31497,31462,31462,31380,31467,31409,31526,31537,31497,31485,31368,31380,31351,31462,31415,31456,31450,31502,31520,31462,31508,31409,31438,31421,31491,31473,31485,31479,31374,73705648,65344,169,943,16238,1452,1628,0,0,1,3,0
Gesture 3,15:36:25.260,31491,31467,31497,31491,31543,31497,31386,31287,31508,31427,31485,31467,31479,31403,31363,31467,31514,31363,31421,31491,31421,31502,31473,31427,31276,31427,31462,31508,31520,31508,31479,31462,73887984,65343,166,940,16238,1452,1628,0,0,1,3,0
Gesture 3,15:36:25.279,31421,31444,31398,31473,31462,31444,31351,31415,31462,31467,31467,31433,31497,31403,31415,31322,31421,31357,31398,31491,31473,31502,31438,31450,31339,31438,31398,31467,31497,31398,31438,31491,74069656,65345,168,943,16238,1452,1628,0,0,1,3,0
Gesture 3,15:36:25.460,31415,31456,31450,31450,31467,31467,31386,31351,31508,31444,31485,31456,31520,31386,31450,31334,31462,31328,31456,31438,31508,31467,31386,31473,31334,31368,31421,31409,31427,31450,31520,31467,74250576,65346,166,943,16238,1452,1628,0,0,1,3,0
Gesture 3,15:36:25.560,31485,31421,31450,31502,31485,31433,31398,31421,31502,31415,31456,31467,31444,31398,31403,31340,31427,31374,31444,31432,31462,31502,31450,31479,31421,31334,31467,31403,31549,31456,31456,31432,74431448,65345,169,940,16238,1452,1628,0,0,1,3,0
Gesture 3,15:36:25.660,31467,31479,31473,31520,31479,31368,31403,31415,31479,31427,31438,31485,31462,31450,31334,31270,31369,31369,31409,31456,31444,31456,31491,31473,31456,31415,31398,31462,31590,31398,31473,31433,74611712,65347,167,942,16238,1452,1628,0,0,1,3,0
Gesture 3,15:36:25.760,31421,31427,31444,31433,31479,31467,31374,31450,31467,31398,31572,31398,31491,31432,31345,31380,31328,31421,31334,31497,31456,31479,31497,31561,31473,31351,31462,31485,31427,31473,31473,31473,74792152,65348,168,942,16238,1452,1628,0,0,1,3,0
Gesture 3,15:36:25.860,31485,31444,31514,31567,31444,31438,31386,31462,31497,31462,31473,31479,31403,31450,31374,31532,31438,31427,31497,31450,31479,31526,31427,31462,31386,31427,31433,31520,31508,31514,31467,31479,74974704,65346,168,941,16238,1452,1628,0,0,1,3,0
Gesture 3,15:36:25.880,31409,31427,31421,31479,31497,31433,31339,31252,31508,31450,31403,31479,31438,31473,31392,31444,31398,31363,31427,31415,31520,31456,31444,31473,31305,31363,31462,31502,31502,31456,31432,31473,75156944,65347,169,939,16238,1452,1628,0,0,1,3,0
Gesture 3,15:36:26.060,31456,31438,31403,31473,31467,31485,31415,31415,31508,31450,31450,31526,31508,31450,31421,31363,31287,31380,31502,31514,31561,31520,31514,31485,31444,31392,31502,31497,31485,31456,31508,31473,75338832,65345,169,941,16238,1452,1628,0,0,1,3,0
Gesture 3,15:36:26.081,31473,31438,31444,31473,31427,31357,31380,31264,31444,31438,31456,31438,31438,31444,31427,31485,31334,31363,31374,31438,31497,31485,31433,31444,31281,31363,31357,31438,31467,31473,31502,31450,75520808,65345,168,941,16238,1452,1628,0,0,1,3,0
Gesture 3,15:36:26.181,31450,31450,31456,31572,31427,31386,31374,31479,31456,31456,31491,31479,31450,31403,31398,31235,31293,31409,31456,31450,31543,31473,31479,31456,31491,31409,31432,31467,31502,31497,31462,31467,75701600,65345,167,947,16238,1452,1628,0,0,1,3,0
Gesture 3,15:36:26.360,31520,31456,31438,31497,31438,31403,31398,31450,31421,31368,31479,31502,31456,31421,31334,31328,31334,31409,31456,31473,31508,31456,31351,31409,31403,31368,31380,31380,31520,31526,31462,31479,75883840,65344,169,947,16238,1452,1628,0,0,1,3,0
Gesture 3,15:36:26.460,31456,31485,31380,31532,31502,31322,31415,31467,31491,31403,31462,31567,31485,31450,31368,31287,31409,31444,31415,31438,31543,31456,31398,31479,31433,31339,31415,31415,31555,31526,31497,31444,76065688,65346,168,945,16238,1452,1628,0,0,1,3,0
Gesture 3,15:36:26.560,31467,31415,31479,31479,31427,31392,31386,31514,31497,31403,31438,31427,31450,31444,31380,31526,31462,31380,31392,31403,31479,31473,31526,31514,31305,31345,31427,31473,31398,31456,31421,31467,76246480,65343,169,941,16238,1452,1628,0,0,1,3,0
Gesture 3,15:36:26.578,31491,31380,31421,31485,31479,31368,31392,31485,31462,31479,31479,31467,31479,31462,31374,31456,31456,31380,31380,31421,31479,31450,31462,31462,31287,31403,31432,31456,31473,31532,31456,31450,76427616,65344,168,939,16238,1452,1628,0,0,1,3,0
Gesture 3,15:36:26.679,31438,31450,31444,31456,31392,31339,31386,31438,31444,31444,31467,31473,31479,31444,31310,31368,31363,31374,31339,31508,31444,31479,31409,31444,31438,31392,31380,31415,31450,31479,31386,31438,76609856,65346,167,942,16238,1452,1628,0,0,1,3,0
Gesture 3,15:36:26.860,31479,31473,31456,31467,31438,31450,31462,31334,31485,31368,31462,31462,31491,31392,31403,31444,31450,31374,31450,31462,31479,31485,31485,31549,31293,31427,31432,31491,31543,31421,31415,31444,76790600,65344,170,938,16238,1452,1628,0,0,1,3,0
Gesture 3,15:36:26.960,31467,31421,31508,31444,31473,31450,31380,31339,31485,31403,31502,31438,31433,31467,31357,31386,31293,31398,31374,31427,31479,31514,31403,31462,31351,31363,31386,31432,31433,31479,31438,31427,76971520,65343,166,942,16238,1452,1628,0,0,1,3,0
Gesture 3,15:36:26.977,31450,31444,31438,31462,31432,31368,31398,31282,31462,31467,31473,31427,31450,31392,31398,31467,31462,31409,31386,31433,31514,31514,31473,31479,31305,31450,31351,31467,31433,31479,31386,31409,77152264,65345,168,942,16238,1452,1628,0,0,1,3,0
Gesture 3,15:36:27.082,31444,31374,31467,31398,31409,31427,31363,31450,31462,31363,31432,31398,31467,31421,31363,31287,31339,31334,31380,31427,31415,31479,31450,31479,31369,31357,31392,31409,31409,31491,31421,31432,77332528,65344,169,941,16238,1452,1628,0,0,1,3,0
Gesture 3,15:36:27.179,31497,31415,31485,31450,31456,31462,31368,31532,31462,31392,31467,31491,31473,31491,31380,31305,31247,31368,31409,31427,31427,31450,31450,31473,31497,31374,31363,31462,31456,31497,31368,31415,77514896,65343,170,946,16238,1452,1628,0,0,1,3,0
Gesture 3,15:36:27.360,31450,31497,31485,31450,31444,31386,31357,31386,31508,31432,31479,31462,31403,31409,31339,31532,31427,31432,31386,31398,31444,31497,31456,31438,31287,31363,31421,31444,31369,31479,31415,31433,77696968,65344,167,942,16238,1452,1628,0,0,1,3,0
Gesture 3,15:36:27.460,31438,31438,31514,31514,31456,31450,31421,31491,31450,31398,31502,31467,31479,31438,31432,31252,31398,31392,31467,31479,31526,31561,31462,31491,31392,31444,31473,31462,31485,31479,31392,31368,77877184,65345,168,943,16238,1452,1628,0,0,1,3,0
Gesture 3,15:36:27.479,31432,31415,31456,31444,31438,31357,31403,31485,31479,31473,31502,31467,31421,31345,31316,31264,31316,31310,31363,31345,31526,31462,31473,31514,31432,31374,31432,31450,31438,31467,31392,31432,78058192,65343,169,943,16238,1452,1628,0,0,1,3,0
Gesture 3,15:36:27.583,31415,31462,31514,31444,31497,31462,31403,31375,31438,31432,31514,31427,31467,31537,31415,31438,31497,31409,31479,31421,31526,31491,31438,31444,31316,31427,31432,31409,31398,31380,31438,31409,78238984,65344,166,941,16238,1452,1628,0,0,1,3,0
Gesture 3,15:36:27.676,31473,31409,31502,31502,31409,31432,31392,31305,31467,31514,31502,31450,31444,31432,31357,31444,31467,31386,31403,31438,31555,31520,31526,31537,31287,31328,31380,31421,31508,31479,31456,31462,78421224,65344,168,942,16238,1452,1628,0,0,1,3,0
Gesture 3,15:36:27.780,31421,31403,31444,31467,31526,31432,31444,31345,31444,31450,31508,31421,31537,31415,31444,31351,31328,31438,31409,31456,31491,31502,31392,31427,31491,31368,31421,31473,31421,31456,31409,31415,78602144,65346,167,939,16238,1452,1628,0,0,1,3,0
Gesture 3,15:36:27.880,31497,31502,31444,31409,31462,31415,31438,31316,31497,31467,31502,31415,31462,31386,31421,31386,31363,31444,31403,31473,31450,31479,31456,31526,31415,31368,31380,31421,31427,31549,31409,31520,78782888,65345,168,943,16238,1452,1628,0,0,1,3,0
Gesture 3,15:36:27.981,31456,31433,31456,31380,31514,31473,31415,31404,31456,31357,31444,31374,31485,31374,31421,31322,31299,31374,31479,31444,31456,31491,31409,31450,31514,31421,31409,31462,31450,31456,31368,31462,78963864,65343,168,938,16238,1452,1628,0,0,1,3,0
Gesture 3,15:36:28.080,31467,31415,31485,31508,31450,31374,31421,31316,31467,31456,31467,31467,31415,31363,31357,31497,31485,31339,31456,31409,31438,31473,31485,31462,31305,31432,31403,31427,31497,31491,31433,31386,79146368,65346,169,940,16238,1452,1628,0,0,1,3,0
Gesture 3,15:36:28.178,31456,31392,31456,31427,31456,31374,31386,31403,31368,31374,31520,31339,31351,31427,31374,31409,31305,31409,31409,31421,31438,31537,31409,31421,31409,31339,31334,31345,31421,31450,31339,31386,79327072,65345,168,940,16238,1452,1628,0,0,1,3,0
Gesture 3,15:36:28.360,31450,31415,31438,31415,31374,31374,31322,31299,31444,31409,31467,31409,31357,31374,31368,31403,31427,31363,31398,31392,31467,31462,31473,31467,31276,31351,31386,31386,31409,31462,31403,31438,79507768,65343,165,944,16238,1452,1628,0,0,1,3,0
Gesture 3,15:36:28.460,31467,31403,31467,31427,31438,31345,31339,31497,31497,31357,31467,31409,31444,31421,31368,31270,31322,31403,31374,31433,31444,31514,31432,31415,31363,31374,31392,31386,31415,31421,31310,31392,79688784,65345,169,942,16238,1452,1628,0,0,1,3,0
Gesture 3,15:36:28.479,31403,31432,31421,31479,31398,31363,31438,31491,31508,31467,31543,31479,31462,31427,31432,31380,31415,31432,31357,31479,31502,31532,31438,31491,31403,31403,31409,31433,31502,31543,31479,31438,79871640,65346,167,944,16238,1452,1628,0,0,1,3,0
Gesture 3,15:36:28.661,31403,31438,31502,31421,31450,31444,31351,31386,31398,31421,31485,31520,31432,31392,31374,31479,31520,31380,31380,31427,31450,31444,31473,31467,31462,31380,31322,31473,31467,31444,31398,31427,80051944,65345,168,938,16238,1452,1628,0,0,1,3,0
Gesture 3,15:36:28.761,31485,31497,31479,31450,31403,31403,31374,31380,31491,31526,31497,31421,31444,31427,31421,31456,31467,31380,31432,31374,31526,31467,31450,31520,31462,31444,31398,31479,31473,31514,31467,31467,80233664,65345,168,943,16238,1452,1628,0,0,1,3,0
Gesture 3,15:36:28.780,31473,31432,31491,31473,31450,31467,31345,31311,31491,31438,31479,31473,31462,31421,31392,31450,31415,31427,31392,31508,31508,31485,31433,31479,31439,31438,31403,31508,31433,31497,31380,31467,80414096,65347,169,941,16238,1452,1628,0,0,1,3,0
Gesture 3,15:36:28.960,31479,31421,31473,31456,31450,31467,31369,31462,31456,31444,31450,31415,31479,31415,31357,31258,31311,31345,31433,31403,31467,31479,31502,31520,31421,31392,31386,31473,31438,31485,31433,31473,80595328,65344,168,938,16238,1452,1628,0,0,1,3,0
Gesture 3,15:36:28.978,31438,31398,31462,31502,31409,31322,31363,31206,31479,31357,31473,31432,31456,31386,31374,31380,31444,31398,31374,31502,31392,31450,31398,31491,31322,31415,31380,31438,31432,31450,31427,31491,80778048,65341,169,943,16238,1452,1628,0,0,1,3,0
Gesture 3,15:36:29.161,31380,31462,31479,31532,31467,31421,31421,31264,31432,31491,31444,31502,31467,31398,31363,31438,31508,31403,31386,31497,31578,31479,31427,31444,31403,31351,31432,31473,31572,31508,31462,31409,80960248,65346,167,940,16238,1452,1628,0,0,1,3,0
Gesture 3,15:36:29.261,31502,31409,31491,31421,31444,31363,31363,31415,31450,31433,31485,31380,31415,31380,31357,31334,31433,31392,31409,31473,31444,31409,31456,31502,31339,31403,31415,31421,31363,31403,31403,31462,81141480,65346,168,939,16238,1452,1628,0,0,1,3,0
Gesture 3,15:36:29.360,31456,31409,31456,31462,31450,31386,31450,31317,31479,31427,31497,31462,31444,31427,31421,31415,31386,31467,31398,31485,31438,31514,31479,31502,31374,31438,31415,31415,31438,31473,31450,31462,81322360,65345,167,943,16238,1452,1628,0,0,1,3,0
Gesture 3,15:36:29.378,31444,31421,31497,31438,31432,31334,31473,31345,31456,31403,31520,31415,31438,31403,31433,31421,31299,31409,31380,31456,31497,31537,31502,31502,31433,31456,31415,31456,31444,31438,31450,31444,81503016,65344,166,945,16238,1452,1628,0,0,1,3,0
Gesture 3,15:36:29.560,31444,31438,31438,31467,31456,31398,31386,31403,31467,31502,31438,31473,31485,31380,31432,31351,31345,31456,31438,31514,31450,31502,31497,31473,31334,31491,31427,31526,31502,31462,31421,31485,81683232,65344,168,945,16238,1452,1628,0,0,1,3,0
Gesture 3,15:36:29.577,31467,31386,31473,31467,31409,31438,31438,31392,31514,31502,31462,31479,31415,31316,31467,31357,31468,31450,31380,31421,31467,31444,31491,31497,31468,31456,31357,31444,31497,31532,31380,31432,81864552,65345,166,942,16238,1452,1628,0,0,1,3,0
Gesture 3,15:36:29.679,31427,31444,31497,31468,31438,31432,31392,31433,31502,31502,31497,31456,31421,31380,31374,31479,31368,31415,31409,31392,31491,31520,31369,31473,31276,31427,31363,31403,31433,31537,31508,31520,82046752,65346,168,943,16238,1452,1628,0,0,1,3,0
Gesture 3,15:36:29.860,31497,31438,31502,31444,31508,31409,31462,31334,31467,31363,31497,31421,31514,31427,31450,31404,31363,31485,31415,31485,31502,31462,31432,31514,31456,31485,31473,31456,31415,31497,31368,31514,82227896,65345,168,938,16238,1452,1628,0,0,1,3,0
Gesture 3,15:36:29.879,31462,31473,31479,31438,31450,31421,31427,31415,31467,31497,31479,31415,31456,31456,31380,31305,31369,31456,31363,31438,31485,31520,31450,31491,31398,31444,31369,31456,31450,31485,31398,31473,82408600,65346,169,937,16238,1452,1628,0,0,1,3,0
Gesture 3,15:36:29.980,31403,31450,31444,31485,31462,31433,31467,31299,31432,31462,31479,31473,31433,31462,31450,31532,31462,31456,31421,31392,31526,31514,31450,31427,31282,31456,31392,31438,31485,31473,31380,31497,82590848,65347,167,939,16238,1452,1628,0,0,1,3,0
Gesture 4,15:36:30.082,31415,31432,31433,31473,31479,31427,31415,31241,31369,31467,31537,31450,31508,31421,31345,31427,31386,31398,31386,31438,31473,31502,31392,31462,31328,31409,31403,31462,31514,31479,31485,31415,82773312,65343,166,941,16238,1452,1628,0,0,1,3,0
Gesture 4,15:36:30.184,31467,31421,31491,31491,31473,31409,31497,31363,31421,31421,31450,31502,31485,31427,31444,31421,31450,31537,31433,31485,31479,31497,31363,31543,31346,31444,31415,31473,31485,31491,31491,31537,82956080,65345,168,939,16238,1452,1628,0,0,1,3,0
Gesture 4,15:36:30.280,31508,31421,31456,31427,31462,31403,31392,31223,31491,31415,31514,31479,31456,31450,31363,31526,31380,31438,31421,31467,31520,31497,31438,31462,31276,31386,31456,31514,31421,31520,31351,31462,83137000,65346,168,939,16238,1452,1628,0,0,1,3,0
Gesture 4,15:36:30.380,31444,31398,31497,31502,31450,31456,31467,31357,31432,31467,31485,31473,31467,31427,31427,31403,31398,31479,31427,31479,31438,31456,31462,31479,31345,31444,31433,31479,31520,31502,31473,31450,83319328,65345,168,943,16238,1452,1628,0,0,1,3,0
Gesture 4,15:36:30.482,31467,31374,31508,31450,31427,31374,31386,31241,31444,31409,31444,31392,31398,31357,31456,31368,31421,31438,31374,31432,31421,31508,31386,31421,31276,31409,31421,31432,31421,31462,31427,31467,83499640,65344,168,942,16238,1452,1628,0,0,1,3,0
Gesture 4,15:36:30.579,31479,31462,31432,31415,31444,31427,31485,31311,31462,31421,31497,31462,31485,31409,31479,31450,31415,31415,31398,31456,31502,31450,31415,31479,31293,31421,31409,31438,31421,31456,31409,31491,83680832,65345,168,942,16238,1452,1628,0,0,1,3,0
Gesture 4,15:36:30.760,31561,31432,31479,31421,31386,31380,31456,31340,31479,31462,31514,31450,31421,31392,31450,31363,31299,31409,31444,31462,31514,31450,31473,31497,31398,31438,31456,31427,31456,31473,31438,31403,83863200,65346,170,942,16238,1452,1628,0,0,1,3,0
Gesture 4,15:36:30.777,31479,31363,31497,31415,31485,31357,31438,31497,31473,31398,31479,31415,31467,31427,31427,31311,31374,31433,31403,31479,31497,31497,31409,31450,31421,31403,31403,31444,31450,31543,31398,31473,84045224,65345,169,941,16238,1452,1628,0,0,1,3,0
Gesture 4,15:36:30.961,31450,31438,31549,31433,31462,31432,31444,31409,31502,31432,31497,31462,31473,31403,31403,31316,31444,31444,31357,31473,31485,31567,31421,31462,31409,31438,31403,31444,31363,31514,31433,31462,84226448,65344,168,940,16238,1452,1628,0,0,1,3,0
Gesture 4,15:36:30.977,31491,31421,31409,31427,31432,31415,31380,31363,31421,31415,31438,31421,31485,31432,31450,31403,31427,31450,31415,31473,31508,31502,31467,31532,31462,31438,31392,31438,31421,31508,31392,31444,84406936,65345,169,938,16238,1452,1628,0,0,1,3,0
Gesture 4,15:36:31.160,31473,31409,31479,31427,31403,31357,31409,31305,31462,31415,31502,31409,31398,31363,31421,31415,31433,31450,31398,31479,31374,31508,31380,31491,31491,31403,31438,31450,31520,31467,31357,31514,84588248,65345,169,938,16238,1452,1628,0,0,1,3,0
Gesture 4,15:36:31.176,31467,31432,31491,31450,31497,31357,31467,31403,31532,31421,31415,31415,31473,31368,31502,31345,31421,31479,31310,31438,31462,31462,31380,31432,31438,31450,31339,31427,31450,31456,31450,31491,84770536,65345,168,940,16238,1452,1628,0,0,1,3,0
Gesture 4,15:36:31.360,31502,31473,31473,31433,31444,31380,31345,31467,31491,31491,31491,31444,31415,31392,31409,31514,31473,31433,31409,31403,31467,31473,31380,31462,31432,31433,31351,31456,31438,31433,31479,31514,84952952,65344,165,943,16238,1452,1628,0,0,1,3,0
Gesture 4,15:36:31.380,31415,31380,31467,31444,31450,31357,31438,31485,31438,31456,31491,31398,31462,31421,31421,31409,31520,31456,31450,31444,31409,31444,31438,31502,31433,31479,31392,31415,31462,31467,31386,31467,85135368,65346,167,943,16238,1452,1628,0,0,1,3,0
Gesture 4,15:36:31.483,31532,31374,31497,31398,31386,31380,31409,31421,31508,31456,31497,31398,31386,31421,31392,31438,31473,31374,31339,31421,31421,31514,31561,31467,31491,31386,31409,31351,31386,31438,31415,31444,85316120,65344,167,942,16238,1452,1628,0,0,1,3,0
Gesture 4,15:36:31.577,31543,31363,31444,31433,31479,31363,31421,31444,31485,31398,31502,31380,31421,31403,31497,31491,31497,31502,31438,31502,31485,31467,31345,31432,31473,31438,31380,31508,31479,31432,31497,31421,85498360,65346,168,943,16238,1452,1628,0,0,1,3,0
Gesture 4,15:36:31.760,31438,31462,31456,31491,31421,31386,31433,31444,31514,31386,31502,31398,31415,31392,31380,31497,31502,31415,31398,31427,31485,31467,31374,31444,31450,31392,31374,31409,31479,31479,31456,31392,85680512,65347,168,940,16238,1452,1628,0,0,1,3,0
Gesture 4,15:36:31.780,31450,31409,31456,31403,31467,31432,31433,31491,31537,31432,31444,31456,31514,31357,31421,31450,31485,31467,31398,31450,31415,31491,31444,31526,31491,31380,31403,31543,31415,31456,31357,31462,85860952,65345,168,939,16238,1452,1628,0,0,1,3,0
Gesture 4,15:36:31.877,31491,31427,31485,31409,31462,31409,31462,31532,31491,31467,31520,31386,31444,31398,31473,31473,31485,31392,31357,31403,31473,31467,31479,31502,31444,31398,31398,31462,31403,31497,31421,31467,86042184,65345,169,940,16238,1452,1628,0,0,1,3,0
Gesture 4,15:36:32.060,31444,31403,31526,31322,31456,31403,31444,31467,31543,31398,31467,31450,31473,31479,31473,31479,31514,31485,31456,31415,31450,31427,31450,31450,31467,31421,31380,31427,31403,31450,31409,31462,86222976,65345,167,942,16238,1452,1628,0,0,1,3,0
Gesture 4,15:36:32.082,31444,31398,31479,31450,31427,31380,31427,31508,31467,31409,31491,31467,31438,31403,31456,31438,31479,31479,31339,31392,31468,31497,31444,31462,31450,31438,31363,31467,31467,31485,31339,31514,86405392,65346,168,943,16238,1452,1628,0,0,1,3,0
Gesture 4,15:36:32.177,31444,31444,31433,31432,31467,31427,31427,31467,31462,31357,31398,31374,31467,31450,31427,31497,31467,31433,31380,31450,31462,31450,31427,31433,31467,31508,31403,31479,31409,31450,31322,31415,86586104,65346,169,943,16238,1452,1628,0,0,1,3,0
Gesture 4,15:36:32.360,31444,31467,31462,31427,31427,31409,31398,31491,31502,31444,31479,31462,31450,31403,31427,31456,31491,31473,31421,31497,31514,31497,31462,31520,31479,31438,31403,31456,31462,31549,31421,31485,86766280,65346,167,939,16238,1452,1628,0,0,1,3,0
Gesture 4,15:36:32.380,31467,31351,31467,31456,31479,31467,31450,31502,31467,31357,31473,31421,31427,31380,31485,31467,31514,31456,31386,31526,31450,31462,31438,31450,31473,31427,31415,31444,31403,31432,31433,31567,86947336,65343,169,942,16238,1452,1628,0,0,1,3,0
Gesture 4,15:36:32.480,31514,31444,31502,31433,31485,31473,31421,31508,31467,31473,31549,31433,31421,31368,31403,31456,31502,31433,31450,31433,31514,31537,31497,31549,31502,31444,31398,31432,31403,31502,31409,31479,87129264,65346,170,944,16238,1452,1628,0,0,1,3,0
Gesture 4,15:36:32.577,31450,31409,31415,31444,31485,31427,31392,31514,31398,31386,31485,31450,31462,31415,31456,31508,31497,31479,31403,31444,31502,31497,31473,31433,31456,31403,31403,31485,31433,31438,31432,31497,87310360,65345,170,945,16238,1452,1628,0,0,1,3,0
Gesture 4,15:36:32.678,31491,31450,31444,31438,31415,31368,31462,31514,31555,31479,31444,31485,31427,31351,31380,31444,31450,31427,31374,31450,31497,31467,31462,31514,31432,31403,31409,31421,31491,31462,31479,31473,87492736,65343,165,944,16238,1452,1628,0,0,1,3,0
Gesture 4,15:36:32.780,31421,31432,31409,31409,31491,31450,31421,31485,31473,31456,31444,31363,31403,31392,31433,31462,31444,31497,31398,31415,31432,31351,31374,31497,31508,31462,31403,31415,31392,31386,31491,31491,87675152,65344,169,934,16238,1452,1628,0,0,1,3,0
Gesture 4,15:36:32.879,31398,31310,31392,31334,31386,31427,31438,31473,31473,31380,31392,31438,31415,31409,31456,31456,31433,31421,31386,31380,31456,31415,31432,31462,31438,31415,31380,31380,31409,31421,31444,31444,87856080,65343,166,943,16238,1452,1628,0,0,1,3,0
Gesture 4,15:36:32.978,31479,31357,31450,31392,31444,31403,31415,31462,31403,31351,31444,31363,31415,31427,31398,31462,31444,31409,31421,31473,31392,31409,31467,31438,31479,31438,31363,31433,31450,31380,31398,31485,88038408,65344,167,939,16238,1452,1628,0,0,1,3,0
Gesture 4,15:36:33.160,31438,31479,31374,31462,31432,31368,31415,31438,31433,31514,31485,31485,31497,31368,31433,31432,31479,31427,31409,31409,31473,31497,31450,31485,31444,31467,31386,31444,31427,31450,31438,31502,88220256,65345,168,937,16238,1452,1628,0,0,1,3,0
Gesture 4,15:36:33.177,31462,31462,31502,31456,31473,31363,31398,31479,31456,31467,31392,31433,31467,31398,31386,31555,31502,31386,31409,31444,31444,31433,31444,31462,31497,31438,31415,31450,31532,31497,31508,31438,88402584,65345,168,938,16238,1452,1628,0,0,1,3,0
Gesture 4,15:36:33.361,31415,31462,31433,31398,31491,31398,31462,31508,31497,31467,31467,31450,31473,31403,31432,31485,31450,31456,31409,31502,31526,31403,31421,31421,31497,31479,31432,31543,31438,31479,31473,31433,88585000,65343,169,942,16238,1452,1628,0,0,1,3,0
Gesture 4,15:36:33.461,31485,31456,31433,31526,31450,31374,31415,31520,31438,31415,31450,31462,31502,31415,31427,31462,31502,31462,31374,31491,31473,31444,31456,31403,31462,31444,31421,31433,31450,31479,31444,31421,88767288,65345,166,943,16238,1452,1628,0,0,1,3,0
Gesture 4,15:36:33.560,31479,31473,31415,31427,31450,31380,31432,31450,31479,31433,31467,31497,31462,31409,31444,31462,31467,31398,31374,31456,31502,31392,31462,31520,31479,31386,31427,31432,31386,31403,31357,31473,88949752,65346,170,940,16238,1452,1628,0,0,1,3,0
Gesture 4,15:36:33.661,31491,31473,31345,31456,31456,31497,31415,31473,31497,31438,31432,31438,31502,31444,31415,31491,31473,31479,31368,31444,31456,31462,31467,31467,31555,31444,31351,31479,31462,31409,31479,31462,89132344,65344,169,943,16238,1452,1628,0,0,1,3,0
Gesture 4,15:36:33.761,31403,31368,31502,31415,31467,31386,31462,31543,31456,31374,31456,31468,31456,31438,31462,31491,31502,31421,31403,31456,31491,31479,31450,31479,31497,31462,31467,31479,31433,31438,31403,31409,89313616,65345,165,945,16238,1452,1628,0,0,1,3,0
Gesture 4,15:36:33.860,31421,31392,31444,31462,31479,31386,31433,31444,31520,31409,31415,31403,31508,31380,31438,31479,31473,31398,31433,31491,31433,31467,31485,31479,31491,31444,31462,31433,31444,31467,31438,31444,89494496,65345,169,939,16238,1452,1628,0,0,1,3,0
Gesture 4,15:36:33.960,31473,31462,31403,31444,31485,31444,31497,31438,31462,31456,31444,31450,31415,31374,31421,31532,31485,31462,31339,31432,31468,31403,31456,31386,31514,31398,31450,31456,31491,31427,31368,31450,89677216,65345,170,937,16238,1452,1628,0,0,1,3,0
Gesture 4,15:36:33.980,31438,31497,31438,31450,31438,31415,31456,31502,31467,31514,31473,31427,31467,31427,31415,31432,31491,31479,31415,31485,31508,31479,31456,31456,31508,31462,31374,31456,31421,31456,31520,31462,89859632,65344,167,940,16238,1452,1628,0,0,1,3,0
Gesture 4,15:36:34.079,31409,31409,31421,31432,31467,31427,31450,31456,31473,31357,31392,31409,31398,31357,31380,31502,31467,31403,31363,31409,31369,31427,31427,31444,31415,31433,31438,31409,31456,31403,31339,31433,90040512,65345,170,941,16238,1452,1628,0,0,1,3,0
Gesture 4,15:36:34.261,31438,31415,31450,31380,31386,31450,31374,31479,31432,31380,31444,31415,31421,31398,31438,31456,31450,31456,31450,31450,31380,31427,31473,31473,31438,31450,31380,31467,31380,31415,31438,31485,90221616,65344,167,942,16238,1452,1628,0,0,1,3,0
Gesture 4,15:36:34.361,31438,31380,31415,31427,31403,31444,31485,31363,31403,31403,31392,31374,31450,31427,31479,31403,31438,31438,31421,31415,31409,31479,31537,31438,31403,31497,31432,31444,31363,31398,31432,31392,90402544,65344,168,941,16238,1452,1628,0,0,1,3,0
Gesture 4,15:36:34.460,31322,31432,31392,31473,31433,31438,31380,31444,31444,31421,31432,31450,31485,31438,31433,31444,31450,31450,31403,31502,31479,31403,31363,31485,31497,31456,31421,31456,31450,31444,31485,31444,90585136,65344,168,946,16238,1452,1628,0,0,1,3,0
Gesture 4,15:36:34.560,31444,31421,31421,31421,31421,31444,31432,31456,31491,31433,31444,31450,31502,31380,31409,31467,31497,31421,31386,31450,31403,31403,31508,31386,31479,31456,31345,31409,31462,31444,31392,31374,90766152,65344,169,942,16238,1452,1628,0,0,1,3,0
Gesture 4,15:36:34.660,31444,31433,31380,31432,31456,31409,31450,31479,31438,31444,31374,31467,31526,31479,31438,31491,31479,31456,31357,31438,31491,31497,31363,31421,31462,31421,31444,31421,31380,31427,31415,31450,90948568,65345,169,941,16238,1452,1628,0,0,1,3,0
Gesture 4,15:36:34.760,31415,31444,31456,31427,31421,31392,31398,31462,31456,31398,31462,31427,31398,31351,31392,31467,31421,31374,31351,31462,31473,31432,31415,31421,31438,31374,31334,31438,31427,31467,31427,31374,91129272,65345,169,943,16238,1452,1628,0,0,1,3,0
Gesture 4,15:36:34.860,31433,31351,31409,31450,31444,31456,31456,31444,31462,31479,31392,31485,31491,31369,31450,31508,31456,31398,31433,31467,31415,31456,31479,31421,31473,31438,31398,31526,31491,31403,31421,31392,91312136,65345,168,942,16238,1452,1628,0,0,1,3,0
Gesture 4,15:36:34.961,31438,31433,31462,31427,31467,31357,31386,31491,31421,31497,31438,31438,31380,31409,31374,31467,31427,31508,31380,31473,31438,31421,31450,31473,31462,31421,31398,31433,31450,31467,31409,31427,91493144,65345,169,938,16238,1452,1628,0,0,1,3,0
Gesture 4,15:36:35.060,31427,31462,31421,31398,31467,31415,31473,31479,31374,31409,31409,31403,31409,31462,31491,31450,31491,31503,31456,31450,31491,31374,31415,31415,31444,31467,31363,31537,31456,31380,31438,31380,91675736,65347,168,936,16238,1452,1628,0,0,1,3,0
Gesture 4,15:36:35.160,31456,31392,31467,31357,31415,31339,31374,31497,31514,31398,31444,31403,31433,31380,31427,31473,31432,31409,31386,31438,31444,31351,31462,31368,31520,31433,31351,31427,31438,31438,31421,31444,91856752,65344,167,940,16238,1452,1628,0,0,1,3,0
Gesture 4,15:36:35.177,31444,31386,31444,31427,31462,31409,31363,31502,31462,31380,31409,31421,31444,31433,31386,31450,31421,31456,31415,31497,31398,31438,31479,31479,31438,31450,31421,31444,31456,31374,31409,31427,92037272,65342,168,938,16238,1452,1628,0,0,1,3,0
Gesture 4,15:36:35.361,31421,31444,31334,31502,31444,31398,31450,31427,31497,31450,31427,31491,31392,31392,31450,31462,31479,31433,31421,31456,31409,31403,31438,31467,31456,31467,31403,31462,31398,31433,31467,31444,92219696,65345,170,938,16238,1452,1628,0,0,1,3,0
Gesture 4,15:36:35.460,31438,31427,31403,31456,31456,31380,31433,31456,31456,31444,31357,31345,31438,31433,31398,31444,31479,31409,31369,31462,31398,31403,31415,31363,31467,31479,31374,31532,31380,31409,31432,31462,92402072,65344,167,942,16238,1452,1628,0,0,1,3,0
Gesture 4,15:36:35.560,31380,31462,31403,31427,31415,31421,31421,31444,31386,31473,31409,31415,31421,31432,31462,31467,31543,31438,31415,31427,31415,31450,31491,31432,31467,31398,31351,31479,31450,31392,31479,31456,92584536,65346,167,944,16238,1452,1628,0,0,1,3,0
Gesture 4,15:36:35.660,31374,31444,31392,31427,31462,31380,31363,31421,31450,31421,31438,31392,31421,31427,31403,31497,31427,31520,31403,31467,31322,31392,31479,31427,31473,31427,31438,31485,31438,31409,31415,31427,92767648,65346,168,940,16238,1452,1628,0,0,1,3,0
Gesture 4,15:36:35.760,31444,31438,31438,31421,31432,31322,31433,31473,31398,31485,31398,31415,31479,31357,31427,31462,31456,31421,31421,31427,31497,31444,31450,31444,31485,31403,31403,31467,31421,31450,31497,31485,92950064,65347,168,942,16238,1452,1628,0,0,1,3,0
Gesture 4,15:36:35.860,31409,31438,31432,31409,31467,31392,31467,31450,31421,31427,31427,31409,31433,31409,31433,31467,31485,31380,31392,31427,31438,31427,31485,31438,31479,31456,31392,31467,31392,31427,31374,31374,93131168,65345,169,942,16238,1452,1628,0,0,1,3,0
Gesture 4,15:36:35.961,31479,31456,31479,31403,31462,31334,31415,31479,31473,31421,31403,31421,31432,31339,31520,31438,31473,31456,31398,31497,31467,31444,31479,31532,31491,31444,31427,31467,31415,31392,31444,31462,93312088,65343,168,938,16238,1452,1628,0,0,1,3,0
Gesture 4,15:36:36.059,31415,31363,31403,31409,31444,31462,31444,31497,31467,31392,31403,31380,31444,31374,31409,31438,31444,31444,31403,31491,31444,31502,31415,31427,31450,31380,31392,31403,31345,31380,31421,31357,93492648,65346,168,940,16238,1452,1628,0,0,1,3,0
Gesture 4,15:36:36.159,31409,31456,31421,31508,31438,31409,31456,31526,31497,31450,31479,31532,31485,31293,31485,31497,31549,31491,31386,31497,31520,31432,31526,31456,31549,31427,31363,31427,31438,31421,31392,31456,93674624,65345,169,940,16238,1452,1628,0,0,1,3,0
Gesture 4,15:36:36.259,31479,31386,31432,31398,31444,31403,31427,31473,31450,31450,31479,31374,31403,31374,31444,31421,31502,31386,31380,31444,31421,31467,31473,31456,31467,31450,31368,31392,31374,31386,31415,31409,93855336,65344,166,942,16238,1452,1628,0,0,1,3,0
Gesture 4,15:36:36.359,31456,31392,31415,31462,31467,31368,31450,31532,31450,31456,31491,31485,31467,31363,31462,31485,31467,31462,31398,31491,31473,31427,31456,31508,31491,31432,31386,31462,31433,31398,31386,31502,94035904,65343,168,942,16238,1452,1628,0,0,1,3,0
Gesture 4,15:36:36.460,31415,31473,31380,31403,31462,31421,31421,31456,31415,31479,31456,31409,31450,31398,31380,31438,31467,31403,31444,31456,31456,31467,31398,31502,31508,31374,31497,31473,31432,31421,31485,31380,94218184,65344,169,946,16238,1452,1628,0,0,1,3,0
Gesture 4,15:36:36.560,31392,31497,31450,31462,31427,31398,31502,31485,31427,31450,31438,31467,31438,31415,31491,31532,31467,31462,31328,31415,31508,31438,31485,31427,31497,31438,31403,31479,31467,31491,31508,31473,94400208,65345,167,945,16238,1452,1628,0,0,1,3,0
Gesture 4,15:36:36.660,31421,31438,31421,31467,31456,31468,31433,31433,31450,31421,31438,31392,31415,31421,31462,31427,31467,31392,31450,31450,31392,31409,31467,31421,31409,31450,31403,31444,31502,31456,31374,31456,94582840,65345,168,944,16238,1452,1628,0,0,1,3,0
Gesture 4,15:36:36.759,31502,31380,31462,31433,31485,31392,31467,31467,31432,31392,31450,31462,31491,31386,31485,31438,31502,31479,31398,31491,31438,31497,31438,31467,31514,31403,31409,31409,31403,31392,31403,31427,94765520,65345,168,940,16238,1452,1628,0,0,1,3,0
Gesture 4,15:36:36.778,31479,31398,31514,31374,31438,31299,31415,31421,31491,31427,31409,31409,31433,31386,31403,31444,31502,31444,31409,31491,31421,31479,31444,31438,31438,31444,31421,31363,31386,31438,31415,31462,94945736,65346,170,938,16238,1452,1628,0,0,1,3,0
Gesture 4,15:36:36.881,31415,31450,31467,31409,31403,31398,31386,31491,31456,31403,31491,31403,31491,31334,31409,31479,31462,31438,31450,31462,31502,31438,31368,31485,31520,31392,31398,31462,31380,31421,31456,31386,95126000,65343,167,941,16238,1452,1628,0,0,1,3,0
Gesture 4,15:36:37.059,31508,31392,31427,31456,31438,31386,31473,31432,31438,31427,31479,31432,31427,31409,31438,31467,31432,31409,31363,31433,31421,31438,31432,31433,31444,31444,31351,31479,31433,31415,31444,31450,95306832,65343,170,937,16238,1452,1628,0,0,1,3,0
Gesture 4,15:36:37.159,31398,31467,31450,31421,31392,31432,31438,31497,31386,31444,31432,31374,31438,31427,31415,31543,31433,31462,31363,31491,31491,31467,31421,31491,31491,31392,31421,31502,31363,31462,31421,31467,95489560,65343,167,939,16238,1452,1628,0,0,1,3,0
Gesture 4,15:36:37.259,31450,31427,31456,31398,31444,31369,31386,31491,31473,31462,31497,31334,31444,31322,31444,31444,31462,31485,31398,31485,31403,31508,31473,31398,31520,31444,31345,31392,31403,31467,31479,31421,95671664,65345,170,943,16238,1452,1628,0,0,1,3,0
Gesture 4,15:36:37.359,31473,31468,31351,31386,31450,31345,31415,31456,31491,31444,31508,31421,31444,31322,31403,31514,31520,31438,31369,31450,31427,31421,31467,31427,31485,31415,31409,31473,31467,31421,31462,31392,95853952,65347,170,941,16238,1452,1628,0,0,1,3,0
Gesture 4,15:36:37.377,31450,31485,31409,31456,31462,31351,31444,31532,31427,31462,31438,31403,31514,31380,31467,31467,31502,31467,31398,31479,31479,31526,31432,31514,31491,31415,31351,31497,31398,31427,31543,31467,96036448,65346,167,943,16238,1452,1628,0,0,1,3,0
Gesture 4,15:36:37.478,31479,31421,31555,31374,31450,31432,31409,31473,31462,31467,31508,31409,31467,31345,31473,31502,31502,31421,31380,31467,31467,31520,31479,31467,31462,31462,31363,31479,31438,31502,31433,31432,96217680,65344,167,944,16238,1452,1628,0,0,1,3,0
Gesture 4,15:36:37.580,31456,31514,31409,31462,31392,31386,31427,31485,31491,31462,31438,31403,31444,31433,31380,31467,31537,31497,31403,31444,31485,31479,31415,31526,31537,31485,31415,31427,31444,31438,31491,31479,96400144,65346,168,940,16238,1452,1628,0,0,1,3,0
Gesture 4,15:36:37.680,31473,31497,31502,31415,31473,31427,31462,31485,31415,31433,31456,31409,31456,31374,31438,31438,31438,31386,31392,31438,31456,31508,31491,31415,31467,31415,31357,31438,31409,31508,31403,31467,96581104,65345,167,942,16238,1452,1628,0,0,1,3,0
Gesture 4,15:36:37.859,31415,31421,31514,31467,31526,31468,31427,31520,31444,31409,31514,31502,31543,31374,31450,31526,31502,31421,31374,31450,31409,31549,31438,31532,31549,31421,31398,31491,31473,31526,31421,31485,96764008,65344,170,939,16238,1452,1628,0,0,1,3,0
Gesture 4,15:36:37.881,31403,31485,31456,31438,31392,31398,31473,31514,31456,31427,31462,31485,31415,31438,31444,31456,31479,31438,31450,31473,31398,31450,31415,31508,31526,31467,31386,31450,31467,31514,31479,31467,96946336,65346,167,943,16238,1452,1628,0,0,1,3,0
Gesture 4,15:36:37.977,31433,31415,31479,31415,31462,31456,31473,31514,31497,31450,31485,31485,31491,31409,31520,31491,31479,31340,31427,31561,31479,31473,31450,31462,31450,31467,31456,31514,31357,31450,31467,31421,97127304,65346,169,939,16238,1452,1628,0,0,1,3,0
Gesture 4,15:36:38.082,31386,31508,31491,31473,31462,31427,31392,31590,31433,31450,31427,31374,31438,31409,31502,31479,31467,31392,31345,31427,31456,31491,31433,31450,31508,31258,31334,31497,31456,31502,31450,31409,97309104,65345,169,942,16238,1452,1628,0,0,1,3,0
Gesture 4,15:36:38.179,31421,31456,31456,31444,31502,31462,31508,31421,31462,31369,31467,31421,31502,31438,31340,31462,31532,31276,31421,31479,31479,31491,31473,31491,31520,31467,31444,31456,31438,31508,31380,31479,97489896,65345,165,943,16238,1452,1628,0,0,1,3,0
Gesture 4,15:36:38.284,31479,31421,31456,31444,31473,31386,31473,31473,31444,31392,31415,31386,31438,31380,31258,31456,31497,31328,31363,31421,31374,31444,31433,31467,31485,31415,31444,31438,31456,31444,31398,31456,97672408,65344,169,942,16238,1452,1628,0,0,1,3,0
Gesture 4,15:36:38.379,31433,31427,31438,31409,31503,31363,31345,31444,31444,31328,31456,31334,31462,31438,31351,31502,31514,31357,31380,31467,31403,31467,31450,31491,31485,31264,31369,31497,31351,31479,31403,31467,97852800,65347,168,941,16238,1452,1628,0,0,1,3,0
Gesture 4,15:36:38.481,31497,31386,31421,31368,31409,31322,31386,31561,31444,31369,31497,31398,31502,31339,31409,31456,31497,31433,31409,31467,31438,31421,31450,31450,31497,31427,31403,31467,31415,31421,31398,31427,98033240,65344,169,943,16238,1452,1628,0,0,1,3,0
Gesture 4,15:36:38.580,31433,31444,31462,31357,31421,31427,31409,31485,31491,31345,31415,31415,31438,31386,31398,31485,31456,31305,31415,31497,31409,31415,31456,31403,31432,31467,31462,31427,31380,31409,31409,31398,98215256,65344,166,943,16238,1452,1628,0,0,1,3,0
Gesture 4,15:36:38.677,31520,31456,31421,31450,31497,31299,31432,31502,31462,31444,31409,31398,31433,31386,31270,31467,31444,31345,31368,31473,31432,31462,31403,31526,31456,31363,31421,31432,31427,31491,31421,31467,98395832,65345,167,946,16238,1452,1628,0,0,1,3,0
Gesture 4,15:36:38.860,31467,31473,31432,31438,31438,31386,31409,31549,31398,31386,31473,31403,31479,31339,31380,31514,31467,31485,31392,31427,31427,31473,31462,31467,31479,31311,31357,31479,31392,31485,31369,31369,98576752,65347,168,939,16238,1452,1628,0,0,1,3,0
Gesture 4,15:36:38.878,31462,31438,31456,31438,31403,31432,31241,31508,31473,31403,31485,31409,31427,31345,31467,31497,31508,31392,31380,31485,31438,31491,31491,31432,31485,31276,31415,31415,31409,31485,31415,31502,98759344,65343,168,937,16238,1452,1628,0,0,1,3,0
Gesture 4,15:36:39.059,31415,31485,31415,31438,31491,31357,31247,31485,31491,31398,31491,31456,31520,31386,31491,31479,31421,31409,31398,31433,31450,31421,31444,31427,31456,31270,31386,31462,31479,31462,31479,31438,98941320,65345,170,939,16238,1452,1628,0,0,1,3,0
Gesture 4,15:36:39.159,31450,31468,31409,31467,31473,31415,31270,31479,31479,31467,31491,31473,31392,31339,31520,31450,31526,31392,31398,31456,31409,31456,31369,31462,31497,31235,31374,31433,31467,31485,31502,31467,99123776,65344,167,942,16238,1452,1628,0,0,1,3,0
Gesture 4,15:36:39.259,31462,31456,31462,31374,31427,31392,31421,31456,31497,31421,31497,31386,31421,31427,31247,31502,31526,31392,31345,31485,31479,31456,31409,31438,31409,31403,31345,31467,31415,31421,31479,31485,99306464,65344,168,947,16238,1452,1628,0,0,1,3,0
Gesture 4,15:36:39.359,31409,31514,31508,31421,31508,31374,31270,31555,31444,31485,31532,31479,31502,31386,31415,31479,31485,31473,31409,31485,31473,31485,31543,31479,31526,31403,31438,31450,31514,31467,31427,31450,99489056,65345,167,939,16238,1452,1628,0,0,1,3,0
Gesture 4,15:36:39.376,31433,31380,31491,31415,31462,31392,31398,31514,31462,31444,31491,31491,31450,31316,31398,31491,31421,31334,31305,31468,31415,31473,31421,31462,31549,31432,31345,31421,31409,31462,31456,31409,99670504,65346,169,931,16238,1452,1628,0,0,1,3,0
Gesture 4,15:36:39.478,31456,31467,31485,31491,31502,31432,31485,31526,31467,31462,31508,31479,31508,31432,31502,31514,31520,31473,31403,31526,31421,31532,31456,31462,31502,31328,31444,31467,31473,31526,31502,31450,99853544,65343,169,940,16238,1452,1628,0,0,1,3,0
Gesture 4,15:36:39.578,31497,31456,31485,31409,31468,31456,31339,31444,31415,31432,31473,31403,31450,31374,31316,31508,31456,31247,31368,31438,31409,31456,31450,31479,31444,31438,31403,31444,31380,31502,31438,31450,100034896,65347,167,943,16238,1452,1628,0,0,1,3,0
Gesture 4,15:36:39.680,31415,31473,31497,31462,31473,31421,31386,31526,31520,31485,31444,31473,31462,31427,31328,31520,31485,31247,31409,31456,31409,31415,31444,31491,31549,31444,31403,31456,31479,31497,31450,31479,100217584,65345,167,941,16238,1452,1628,0,0,1,3,0
Gesture 4,15:36:39.859,31409,31403,31467,31473,31403,31363,31229,31467,31409,31438,31485,31368,31450,31374,31305,31485,31491,31253,31380,31386,31421,31421,31357,31432,31467,31316,31299,31403,31398,31462,31502,31427,100400216,65345,168,944,16238,1452,1628,0,0,1,3,0
Gesture 4,15:36:39.960,31450,31374,31508,31433,31485,31444,31258,31433,31456,31456,31409,31502,31479,31456,31427,31467,31444,31403,31479,31497,31467,31473,31403,31508,31526,31299,31403,31508,31392,31462,31432,31444,100581232,65346,168,941,16238,1452,1628,0,0,1,3,0
Gesture 5,15:36:39.978,31450,31450,31485,31438,31497,31398,31276,31467,31368,31438,31415,31409,31462,31409,31473,31450,31485,31421,31334,31479,31398,31433,31421,31462,31479,31293,31351,31450,31491,31409,31444,31462,100764000,65344,170,940,16238,1452,1628,0,0,1,3,0
Gesture 5,15:36:40.159,31473,31467,31444,31444,31380,31409,31398,31502,31467,31409,31456,31427,31415,31339,31392,31537,31508,31403,31398,31444,31450,31491,31479,31567,31473,31369,31368,31415,31462,31532,31409,31444,100945320,65347,168,941,16238,1452,1628,0,0,1,3,0
Gesture 5,15:36:40.260,31462,31403,31462,31450,31485,31374,31357,31462,31497,31409,31491,31403,31421,31345,31421,31444,31432,31421,31351,31456,31415,31456,31438,31508,31456,31392,31351,31462,31398,31502,31403,31502,101126816,65345,168,942,16238,1452,1628,0,0,1,3,0
Gesture 5,15:36:40.359,31462,31462,31444,31508,31444,31450,31357,31497,31479,31462,31502,31467,31497,31403,31438,31532,31549,31386,31427,31444,31502,31555,31497,31444,31526,31438,31432,31438,31508,31473,31432,31502,101309928,65344,170,942,16238,1452,1628,0,0,1,3,0
Gesture 5,15:36:40.459,31433,31450,31485,31479,31462,31380,31421,31462,31450,31403,31473,31467,31444,31380,31374,31497,31502,31421,31427,31450,31450,31502,31409,31526,31543,31340,31368,31415,31502,31456,31334,31415,101491648,65345,170,943,16238,1452,1628,0,0,1,3,0
Gesture 5,15:36:40.559,31438,31473,31450,31456,31479,31438,31398,31514,31415,31438,31444,31363,31473,31450,31345,31514,31467,31473,31450,31409,31450,31491,31421,31432,31491,31276,31421,31421,31497,31532,31479,31421,101674544,65344,167,940,16238,1452,1628,0,0,1,3,0
Gesture 5,15:36:40.576,31462,31409,31520,31450,31456,31386,31421,31502,31520,31374,31456,31438,31415,31392,31293,31497,31456,31346,31368,31467,31479,31485,31433,31485,31532,31450,31403,31456,31427,31491,31386,31479,101856080,65344,168,943,16238,1452,1628,0,0,1,3,0
Gesture 5,15:36:40.680,31403,31438,31485,31462,31427,31403,31427,31502,31427,31467,31473,31491,31462,31444,31247,31567,31520,31270,31432,31462,31467,31497,31456,31514,31532,31427,31398,31403,31549,31502,31409,31438,102039112,65344,168,941,16238,1452,1628,0,0,1,3,0
Gesture 5,15:36:40.780,31485,31432,31479,31473,31433,31421,31409,31532,31438,31444,31467,31473,31485,31497,31206,31485,31561,31212,31409,31415,31438,31392,31438,31473,31526,31479,31403,31409,31491,31497,31415,31491,102221968,65343,167,937,16238,1452,1628,0,0,1,3,0
Gesture 5,15:36:40.959,31450,31421,31520,31438,31415,31374,31235,31456,31479,31369,31473,31467,31444,31386,31351,31485,31497,31340,31421,31514,31421,31497,31497,31467,31491,31357,31398,31450,31456,31456,31415,31473,102404784,65345,169,938,16238,1452,1628,0,0,1,3,0
Gesture 5,15:36:40.976,31433,31450,31485,31421,31398,31421,31276,31555,31526,31403,31421,31409,31456,31438,31409,31491,31497,31427,31433,31438,31462,31497,31467,31450,31479,31247,31363,31409,31444,31438,31415,31485,102586280,65345,167,939,16238,1452,1628,0,0,1,3,0
Gesture 5,15:36:41.081,31450,31427,31462,31456,31432,31380,31433,31491,31415,31421,31438,31421,31467,31444,31247,31485,31479,31398,31386,31479,31456,31526,31491,31403,31485,31403,31334,31433,31380,31427,31392,31485,102767552,65345,167,943,16238,1452,1628,0,0,1,3,0
Gesture 5,15:36:41.259,31456,31462,31450,31369,31398,31438,31403,31502,31438,31444,31479,31462,31433,31403,31334,31508,31514,31374,31444,31456,31444,31444,31462,31398,31514,31339,31345,31427,31398,31514,31415,31468,102950840,65345,170,937,16238,1452,1628,0,0,1,3,0
Gesture 5,15:36:41.277,31479,31398,31479,31444,31409,31386,31264,31485,31467,31467,31479,31421,31403,31409,31433,31514,31444,31473,31409,31433,31462,31438,31421,31392,31497,31438,31374,31398,31403,31467,31433,31479,103132424,65346,170,941,16238,1452,1628,0,0,1,3,0
Gesture 5,15:36:41.378,31508,31508,31444,31403,31403,31398,31403,31508,31479,31450,31497,31450,31421,31363,31403,31555,31444,31427,31450,31403,31497,31543,31403,31467,31526,31427,31374,31398,31456,31485,31520,31450,103315152,65344,168,942,16238,1452,1628,0,0,1,3,0
Gesture 5,15:36:41.479,31403,31409,31503,31432,31427,31322,31444,31491,31450,31421,31473,31374,31444,31368,31508,31485,31438,31427,31409,31456,31491,31520,31450,31427,31473,31299,31380,31438,31374,31456,31369,31450,103497032,65345,168,938,16238,1452,1628,0,0,1,3,0
Gesture 5,15:36:41.578,31462,31415,31491,31450,31438,31369,31485,31467,31444,31497,31520,31456,31415,31334,31270,31467,31462,31293,31299,31462,31502,31491,31462,31497,31514,31345,31433,31462,31409,31491,31432,31514,103679056,65342,167,945,16238,1452,1628,0,0,1,3,0
Gesture 5,15:36:41.682,31467,31374,31485,31438,31415,31432,31241,31450,31427,31380,31473,31479,31380,31398,31485,31473,31462,31421,31427,31444,31473,31467,31456,31403,31467,31235,31363,31485,31415,31508,31403,31438,103860856,65345,167,942,16238,1452,1628,0,0,1,3,0
Gesture 5,15:36:41.782,31444,31403,31491,31433,31392,31374,31345,31467,31462,31462,31491,31543,31363,31374,31497,31485,31520,31444,31374,31421,31438,31473,31491,31450,31526,31258,31392,31374,31433,31479,31368,31491,104043040,65345,172,941,16238,1452,1628,0,0,1,3,0
Gesture 5,15:36:41.877,31403,31427,31491,31479,31438,31357,31363,31462,31485,31479,31491,31502,31351,31398,31339,31543,31514,31409,31438,31398,31526,31491,31421,31421,31549,31345,31386,31409,31444,31491,31502,31467,104225904,65345,167,943,16238,1452,1628,0,0,1,3,0
Gesture 5,15:36:41.979,31467,31473,31427,31438,31374,31374,31258,31532,31462,31438,31502,31462,31438,31363,31427,31502,31462,31473,31386,31409,31467,31497,31555,31467,31467,31270,31386,31444,31467,31508,31497,31485,104408752,65345,168,937,16238,1452,1628,0,0,1,3,0
Gesture 5,15:36:42.090,31444,31386,31497,31415,31409,31403,31369,31479,31398,31403,31456,31444,31473,31374,31247,31497,31473,31270,31409,31403,31450,31392,31467,31409,31485,31409,31386,31421,31462,31438,31497,31421,104591784,65346,169,940,16238,1452,1628,0,0,1,3,0
Gesture 5,15:36:42.260,31450,31427,31432,31450,31392,31398,31462,31520,31444,31479,31491,31467,31444,31403,31311,31619,31520,31328,31409,31427,31427,31479,31450,31433,31491,31351,31392,31462,31520,31555,31479,31421,104774192,65345,167,942,16238,1452,1628,0,0,1,3,0
Gesture 5,15:36:42.359,31438,31467,31497,31421,31386,31380,31380,31462,31479,31433,31450,31444,31380,31421,31200,31450,31456,31282,31409,31467,31479,31497,31403,31456,31485,31386,31392,31357,31450,31421,31427,31444,104956432,65345,169,940,16238,1452,1628,0,0,1,3,0
Gesture 5,15:36:42.459,31526,31421,31467,31380,31415,31345,31276,31549,31473,31462,31432,31438,31392,31374,31398,31491,31485,31339,31392,31421,31497,31508,31491,31514,31520,31299,31345,31444,31450,31514,31409,31456,105137704,65345,167,941,16238,1452,1628,0,0,1,3,0
Gesture 5,15:36:42.479,31427,31485,31502,31456,31415,31374,31450,31479,31450,31421,31497,31467,31374,31386,31241,31532,31514,31322,31433,31438,31380,31502,31444,31339,31473,31479,31438,31415,31415,31520,31386,31450,105320568,65345,167,941,16238,1452,1628,0,0,1,3,0
Gesture 5,15:36:42.579,31415,31473,31368,31427,31456,31368,31264,31485,31403,31398,31467,31369,31415,31328,31252,31485,31514,31264,31374,31345,31432,31392,31392,31462,31415,31421,31363,31398,31345,31421,31462,31427,105503432,65345,168,940,16238,1452,1628,0,0,1,3,0
Gesture 5,15:36:42.679,31444,31427,31479,31456,31456,31374,31241,31415,31450,31403,31467,31467,31467,31339,31444,31555,31421,31392,31374,31427,31508,31508,31438,31473,31462,31270,31386,31462,31386,31508,31398,31386,105684976,65342,167,942,16238,1452,1628,0,0,1,3,0
Gesture 5,15:36:42.783,31438,31427,31473,31456,31409,31351,31241,31456,31456,31415,31502,31415,31444,31357,31392,31485,31485,31456,31409,31456,31473,31497,31427,31450,31473,31299,31392,31403,31380,31415,31409,31462,105866720,65345,168,943,16238,1452,1628,0,0,1,3,0
Gesture 5,15:36:42.959,31421,31456,31433,31485,31514,31427,31409,31514,31380,31450,31456,31415,31432,31374,31258,31462,31491,31189,31398,31491,31444,31467,31456,31456,31456,31462,31345,31462,31398,31467,31421,31421,106049624,65345,168,945,16238,1452,1628,0,0,1,3,0
Gesture 5,15:36:42.978,31456,31432,31514,31380,31334,31374,31415,31467,31427,31433,31444,31398,31380,31415,31235,31462,31444,31281,31363,31438,31433,31520,31450,31421,31444,31380,31363,31409,31398,31444,31450,31386,106231384,65344,167,937,16238,1452,1628,0,0,1,3,0
Gesture 5,15:36:43.086,31444,31409,31462,31502,31427,31462,31444,31450,31485,31438,31467,31467,31427,31374,31195,31497,31502,31270,31432,31427,31433,31450,31491,31462,31520,31520,31339,31462,31462,31543,31432,31467,106414584,65345,169,942,16238,1452,1628,0,0,1,3,0
Gesture 5,15:36:43.180,31456,31368,31456,31438,31386,31392,31363,31514,31409,31444,31421,31427,31432,31351,31363,31456,31532,31339,31380,31415,31415,31450,31403,31444,31444,31223,31368,31369,31357,31403,31433,31409,106595984,65347,166,943,16238,1452,1628,0,0,1,3,0
Gesture 5,15:36:43.279,31438,31485,31421,31462,31374,31380,31345,31502,31502,31380,31462,31456,31398,31421,31316,31438,31444,31427,31363,31456,31444,31508,31316,31398,31462,31380,31380,31398,31462,31491,31497,31462,106778968,65346,167,938,16238,1452,1628,0,0,1,3,0
Gesture 5,15:36:43.377,31444,31380,31438,31450,31398,31328,31386,31427,31427,31374,31444,31357,31450,31392,31409,31497,31526,31427,31351,31357,31467,31508,31537,31438,31479,31235,31363,31363,31386,31473,31421,31462,106960464,65346,169,941,16238,1452,1628,0,0,1,3,0
Gesture 5,15:36:43.560,31368,31485,31502,31491,31386,31403,31520,31467,31398,31409,31456,31473,31421,31398,31415,31485,31526,31287,31363,31444,31392,31462,31467,31444,31438,31467,31351,31473,31491,31450,31520,31427,107143240,65344,169,943,16238,1452,1628,0,0,1,3,0
Gesture 5,15:36:43.659,31473,31427,31456,31409,31427,31357,31421,31537,31421,31403,31526,31438,31438,31363,31456,31549,31514,31392,31299,31433,31444,31491,31479,31491,31508,31287,31409,31450,31409,31479,31485,31444,107324680,65344,168,941,16238,1452,1628,0,0,1,3,0
Gesture 5,15:36:43.676,31415,31409,31450,31398,31409,31403,31432,31473,31427,31433,31555,31415,31462,31392,31258,31485,31491,31316,31369,31514,31467,31549,31456,31444,31427,31444,31322,31374,31415,31532,31403,31450,107506400,65345,169,945,16238,1452,1628,0,0,1,3,0
Gesture 5,15:36:43.776,31392,31409,31450,31421,31351,31363,31374,31433,31433,31485,31520,31432,31409,31357,31462,31502,31456,31479,31351,31456,31491,31462,31485,31392,31502,31252,31368,31403,31404,31438,31520,31473,107689528,65344,166,944,16238,1452,1628,0,0,1,3,0
Gesture 5,15:36:43.880,31380,31409,31514,31467,31421,31421,31334,31520,31409,31421,31543,31485,31444,31374,31398,31508,31502,31328,31427,31497,31462,31473,31491,31444,31479,31433,31421,31444,31543,31479,31433,31467,107872288,65344,168,938,16238,1452,1628,0,0,1,3,0
Gesture 5,15:36:43.976,31386,31444,31491,31421,31409,31374,31456,31497,31450,31398,31462,31398,31403,31351,31281,31502,31467,31241,31345,31380,31473,31502,31462,31467,31532,31363,31363,31438,31374,31427,31432,31479,108053952,65345,170,944,16238,1452,1628,0,0,1,3,0
Gesture 5,15:36:44.160,31398,31398,31473,31409,31479,31409,31438,31572,31467,31450,31473,31444,31368,31444,31264,31514,31450,31380,31403,31409,31467,31508,31467,31427,31526,31374,31467,31438,31485,31479,31357,31368,108235584,65345,169,937,16238,1452,1628,0,0,1,3,0
Gesture 5,15:36:44.177,31444,31427,31479,31427,31450,31374,31223,31473,31427,31415,31479,31351,31438,31339,31456,31479,31467,31351,31403,31403,31374,31421,31456,31432,31497,31264,31374,31403,31403,31491,31415,31432,108417160,65345,169,940,16238,1452,1628,0,0,1,3,0
Gesture 5,15:36:44.359,31438,31374,31473,31409,31491,31345,31241,31537,31403,31380,31508,31368,31398,31415,31421,31479,31502,31398,31398,31427,31415,31473,31438,31456,31485,31369,31392,31421,31432,31467,31421,31491,108600504,65342,167,944,16238,1452,1628,0,0,1,3,0
Gesture 5,15:36:44.460,31427,31310,31479,31456,31433,31392,31351,31450,31433,31374,31456,31398,31392,31322,31235,31427,31444,31247,31421,31398,31456,31398,31403,31467,31421,31398,31368,31368,31444,31427,31392,31456,108783400,65343,167,947,16238,1452,1628,0,0,1,3,0
Gesture 5,15:36:44.559,31357,31380,31438,31433,31398,31357,31398,31502,31415,31421,31479,31462,31456,31409,31282,31502,31491,31247,31421,31462,31485,31479,31427,31368,31537,31479,31421,31450,31398,31491,31421,31351,108964320,65342,167,944,16238,1452,1628,0,0,1,3,0
Gesture 5,15:36:44.660,31462,31415,31456,31415,31357,31357,31229,31438,31398,31380,31421,31438,31398,31310,31368,31450,31432,31375,31374,31409,31369,31497,31409,31368,31456,31334,31334,31316,31473,31508,31351,31526,109145504,65343,168,940,16238,1452,1628,0,0,1,3,0
Gesture 5,15:36:44.759,31403,31479,31491,31403,31444,31386,31299,31555,31380,31368,31415,31386,31409,31403,31398,31508,31479,31421,31363,31415,31433,31467,31357,31374,31427,31351,31415,31438,31415,31479,31497,31427,109328232,65346,168,943,16238,1452,1628,0,0,1,3,0
Gesture 5,15:36:44.860,31444,31467,31427,31467,31415,31398,31351,31467,31403,31502,31444,31432,31386,31357,31316,31491,31456,31421,31345,31374,31438,31543,31403,31427,31456,31403,31363,31351,31450,31462,31485,31485,109511136,65345,170,948,16238,1452,1628,0,0,1,3,0
Gesture 5,15:36:44.960,31421,31438,31462,31403,31398,31392,31351,31479,31409,31433,31473,31398,31392,31398,31403,31438,31456,31218,31497,31520,31432,31520,31409,31444,31520,31444,31386,31444,31398,31433,31444,31415,109693808,65346,168,943,16238,1452,1628,0,0,1,3,0
Gesture 5,15:36:45.059,31497,31444,31526,31438,31438,31409,31392,31479,31502,31467,31514,31462,31380,31386,31549,31537,31555,31467,31380,31427,31450,31491,31520,31473,31561,31427,31345,31409,31421,31485,31427,31415,109875480,65343,168,943,16238,1452,1628,0,0,1,3,0
Gesture 5,15:36:45.082,31456,31473,31526,31526,31409,31403,31380,31532,31415,31444,31584,31497,31462,31386,31427,31549,31462,31520,31409,31473,31444,31514,31433,31485,31561,31427,31421,31409,31549,31532,31537,31421,110058864,65344,166,940,16238,1452,1628,0,0,1,3,0
Gesture 5,15:36:45.176,31415,31398,31537,31409,31456,31427,31421,31549,31467,31456,31543,31479,31438,31380,31497,31485,31508,31462,31363,31421,31467,31613,31497,31520,31508,31404,31438,31380,31392,31502,31438,31444,110240360,65347,169,936,16238,1452,1628,0,0,1,3,0
