Scenario,Time,P0,P1,P2,P3,P4,P5,P6,P7,P9,P10,P11,P12,P13,P14,P15,P16,P17,P18,P19,P20,P21,P22,P23,P24,P25,P26,P27,P28,P29,P30,P31,P32,P33,AX,AY,AZ,QW,QX,QY,QZ,CS,CA,CG,CM
Wait,13:34:59.997,31421,31432,31403,31450,31398,31392,31403,31467,31438,31368,31497,31403,31339,31421,31415,31438,31398,31380,31374,31351,31380,31415,31415,31444,31462,31403,31386,31403,31456,31403,31409,,,,,,,,,,,,,
Wait,13:35:00.097,31386,31392,31444,31409,31258,31386,31368,31403,31415,31415,31380,31415,31380,31398,31380,31438,31444,31345,31380,31351,31415,31456,31398,31438,31386,31322,31351,31322,31351,31514,31491,,,,,,,,,,,,,
Wait,13:35:00.114,31456,31386,31363,31357,31316,31392,31310,31357,31386,31380,31403,31339,31328,31351,31380,31403,31427,31351,31380,31351,31415,31473,31392,31421,31380,31345,31252,31345,31403,31403,31392,,,,,,,,,,,,,
Wait,13:35:00.211,31398,31368,31473,31427,31380,31351,31403,31456,31392,31363,31467,31421,31339,31444,31398,31485,31467,31368,31374,31368,31444,31479,31403,31374,31473,31421,31444,31363,31450,31479,31345,,,,,,,,,,,,,
Wait,13:35:00.396,31386,31409,31357,31357,31264,31409,31351,31398,31380,31398,31450,31363,31363,31334,31368,31398,31462,31339,31345,31299,31456,31386,31432,31363,31427,31421,31293,31334,31398,31444,31363,,,,,,,,,,,,,
Wait,13:35:00.497,31409,31403,31386,31432,31310,31339,31462,31456,31438,31438,31409,31467,31351,31386,31415,31491,31450,31380,31432,31398,31444,31421,31403,31409,31432,31386,31421,31386,31421,31462,31433,,,,,,,,,,,,,
Wait,13:35:00.597,31403,31398,31502,31433,31299,31409,31415,31450,31368,31357,31479,31398,31310,31351,31345,31473,31450,31380,31380,31351,31479,31473,31415,31351,31462,31450,31368,31305,31386,31427,31403,,,,,,,,,,,,,
Wait,13:35:00.697,31380,31409,31502,31462,31322,31450,31409,31427,31334,31427,31444,31368,31357,31444,31491,31467,31427,31421,31427,31351,31467,31450,31467,31322,31398,31415,31380,31357,31421,31462,31403,,,,,,,,,,,,,
Wait,13:35:00.797,31462,31380,31392,31450,31363,31351,31351,31380,31409,31432,31450,31369,31386,31392,31345,31427,31351,31386,31415,31374,31433,31444,31415,31351,31415,31380,31328,31345,31427,31398,31409,,,,,,,,,,,,,
Wait,13:35:00.898,31369,31438,31427,31433,31369,31473,31497,31479,31374,31380,31415,31467,31328,31438,31479,31462,31438,31456,31398,31334,31456,31456,31444,31328,31467,31403,31403,31345,31427,31415,31392,,,,,,,,,,,,,
Wait,13:35:00.997,31386,31398,31398,31409,31334,31334,31421,31427,31398,31409,31398,31485,31351,31409,31392,31427,31421,31438,31357,31334,31467,31421,31456,31433,31392,31438,31345,31357,31433,31415,31386,,,,,,,,,,,,,
Wait,13:35:01.097,31374,31392,31415,31432,31368,31374,31398,31456,31392,31421,31479,31403,31351,31339,31450,31433,31462,31398,31392,31334,31438,31421,31462,31456,31433,31392,31316,31357,31432,31444,31368,,,,,,,,,,,,,
Wait,13:35:01.197,31363,31421,31409,31415,31328,31403,31357,31415,31322,31438,31345,31380,31351,31276,31444,31421,31427,31363,31322,31293,31462,31380,31310,31386,31403,31293,31386,31316,31380,31456,31479,,,,,,,,,,,,,
Wait,13:35:01.296,31339,31293,31415,31444,31339,31415,31374,31380,31409,31374,31398,31334,31380,31374,31363,31479,31409,31328,31339,31380,31415,31438,31374,31403,31374,31351,31398,31351,31374,31438,31415,,,,,,,,,,,,,
Wait,13:35:01.397,31380,31427,31409,31462,31322,31351,31293,31432,31357,31398,31427,31427,31322,31403,31328,31351,31374,31392,31351,31345,31456,31415,31456,31456,31398,31392,31345,31380,31467,31456,31427,,,,,,,,,,,,,
Wait,13:35:01.497,31438,31415,31502,31450,31398,31386,31247,31532,31421,31357,31473,31398,31380,31415,31508,31444,31456,31398,31374,31363,31432,31468,31444,31427,31508,31276,31380,31345,31491,31421,31403,,,,,,,,,,,,,
Wait,13:35:01.596,31438,31328,31427,31409,31351,31351,31357,31403,31421,31357,31392,31392,31345,31386,31310,31392,31339,31369,31392,31328,31462,31398,31438,31386,31421,31183,31374,31305,31415,31415,31427,,,,,,,,,,,,,
Wait,13:35:01.697,31339,31386,31467,31392,31345,31369,31450,31450,31357,31380,31444,31462,31345,31334,31223,31444,31433,31224,31415,31380,31427,31438,31398,31427,31444,31368,31351,31386,31473,31438,31403,,,,,,,,,,,,,
Wait,13:35:01.797,31380,31467,31386,31462,31339,31374,31258,31421,31427,31398,31438,31415,31380,31415,31316,31432,31403,31374,31386,31322,31421,31427,31462,31398,31398,31357,31363,31403,31398,31433,31392,,,,,,,,,,,,,
Wait,13:35:01.810,31392,31322,31398,31421,31438,31328,31386,31456,31392,31345,31456,31427,31392,31403,31247,31462,31398,31339,31334,31369,31479,31444,31386,31421,31456,31369,31409,31392,31444,31497,31299,,,,,,,,,,,,,
Wait,13:35:01.997,31444,31432,31432,31409,31357,31403,31328,31456,31374,31374,31432,31421,31310,31351,31339,31415,31467,31380,31398,31299,31467,31427,31456,31433,31497,31212,31368,31322,31421,31415,31403,,,,,,,,,,,,,
Wait,13:35:02.097,31363,31368,31421,31432,31357,31392,31258,31403,31357,31310,31368,31450,31328,31427,31374,31444,31456,31421,31415,31368,31433,31432,31392,31310,31456,31189,31456,31398,31438,31438,31392,,,,,,,,,,,,,
Wait,13:35:02.112,31444,31427,31433,31444,31275,31380,31282,31398,31345,31386,31456,31427,31380,31357,31357,31467,31444,31247,31368,31380,31432,31456,31415,31485,31427,31345,31334,31328,31374,31432,31322,,,,,,,,,,,,,
Wait,13:35:02.297,31415,31415,31421,31467,31363,31403,31258,31409,31374,31374,31438,31421,31409,31398,31421,31479,31438,31438,31386,31462,31456,31456,31392,31398,31444,31380,31398,31363,31450,31438,31520,,,,,,,,,,,,,
Wait,13:35:02.313,31433,31357,31415,31450,31369,31328,31403,31392,31380,31398,31421,31444,31363,31357,31142,31403,31345,31200,31380,31270,31456,31462,31450,31415,31462,31415,31403,31339,31450,31491,31351,,,,,,,,,,,,,
Wait,13:35:02.497,31444,31345,31427,31456,31392,31427,31235,31421,31398,31380,31456,31462,31380,31293,31398,31421,31444,31462,31403,31403,31421,31421,31386,31421,31462,31223,31386,31427,31415,31444,31328,,,,,,,,,,,,,
Wait,13:35:02.598,31357,31363,31398,31473,31316,31409,31392,31433,31403,31351,31421,31450,31357,31403,31223,31432,31427,31305,31345,31299,31491,31409,31415,31392,31398,31293,31299,31345,31462,31432,31287,,,,,,,,,,,,,
Wait,13:35:02.697,31339,31444,31438,31450,31357,31398,31200,31444,31351,31433,31450,31427,31339,31398,31258,31467,31403,31223,31398,31386,31421,31456,31345,31374,31392,31328,31363,31380,31345,31438,31479,,,,,,,,,,,,,
Wait,13:35:02.712,31403,31386,31462,31462,31398,31339,31467,31415,31421,31462,31508,31421,31374,31409,31200,31479,31479,31241,31328,31392,31462,31491,31444,31415,31427,31462,31392,31380,31427,31479,31374,,,,,,,,,,,,,
Wait,13:35:02.897,31351,31398,31328,31415,31322,31270,31241,31421,31328,31398,31415,31421,31316,31345,31363,31398,31403,31421,31351,31339,31462,31444,31345,31357,31438,31345,31351,31357,31368,31456,31403,,,,,,,,,,,,,
Wait,13:35:02.996,31380,31345,31386,31403,31415,31363,31264,31427,31380,31415,31450,31386,31398,31403,31369,31427,31438,31363,31398,31351,31467,31432,31427,31357,31409,31386,31369,31310,31409,31473,31351,,,,,,,,,,,,,
Wait,13:35:03.097,31363,31415,31456,31497,31409,31334,31374,31438,31363,31386,31456,31479,31398,31380,31171,31427,31433,31247,31351,31386,31386,31473,31450,31403,31433,31374,31427,31380,31473,31497,31380,,,,,,,,,,,,,
Wait,13:35:03.197,31421,31438,31473,31502,31415,31386,31374,31427,31369,31421,31433,31479,31357,31427,31177,31479,31485,31195,31409,31345,31479,31432,31432,31409,31432,31421,31351,31403,31485,31520,31485,,,,,,,,,,,,,
Wait,13:35:03.297,31357,31334,31339,31433,31398,31380,31241,31473,31345,31409,31409,31462,31415,31357,31339,31433,31502,31299,31386,31386,31421,31444,31403,31380,31532,31369,31357,31334,31467,31403,31380,,,,,,,,,,,,,
Wait,13:35:03.397,31369,31485,31444,31438,31293,31398,31310,31467,31403,31456,31485,31403,31374,31403,31415,31438,31456,31427,31415,31357,31485,31555,31438,31386,31456,31264,31357,31339,31456,31421,31508,,,,,,,,,,,,,
Wait,13:35:03.497,31357,31386,31444,31398,31357,31345,31421,31403,31363,31415,31415,31357,31374,31374,31287,31415,31456,31258,31339,31351,31444,31368,31374,31374,31421,31351,31386,31357,31456,31444,31322,,,,,,,,,,,,,
Wait,13:35:03.515,31398,31380,31462,31433,31415,31328,31398,31456,31392,31403,31479,31374,31392,31392,31351,31409,31456,31189,31328,31363,31444,31427,31392,31386,31467,31502,31415,31305,31380,31497,31299,,,,,,,,,,,,,
Wait,13:35:03.697,31427,31392,31287,31374,31438,31403,31479,31287,31415,31421,31293,31433,31450,31433,31444,31293,31316,31502,31421,31433,31310,31148,31427,31444,31258,31467,31462,31450,31467,31374,31398,,,,,,,,,,,,,
Wait,13:35:03.712,31386,31386,31497,31398,31374,31421,31270,31520,31421,31403,31462,31421,31363,31415,31322,31502,31491,31374,31398,31310,31438,31450,31421,31369,31508,31345,31363,31334,31357,31467,31351,,,,,,,,,,,,,
Wait,13:35:03.897,31345,31374,31334,31409,31421,31345,31334,31450,31403,31328,31398,31368,31363,31363,31339,31438,31450,31223,31403,31380,31415,31363,31380,31345,31514,31438,31415,31415,31467,31368,31368,,,,,,,,,,,,,
Wait,13:35:03.913,31386,31398,31450,31415,31351,31398,31473,31444,31374,31392,31409,31444,31328,31409,31229,31462,31433,31293,31392,31345,31450,31433,31467,31374,31409,31427,31409,31328,31380,31421,31438,,,,,,,,,,,,,
Wait,13:35:04.097,31351,31380,31374,31415,31403,31374,31281,31432,31403,31438,31427,31450,31363,31328,31392,31450,31409,31427,31398,31328,31421,31368,31345,31351,31462,31223,31386,31310,31456,31444,31369,,,,,,,,,,,,,
Wait,13:35:04.197,31438,31374,31386,31421,31409,31374,31241,31444,31456,31374,31491,31392,31334,31444,31374,31427,31409,31334,31334,31403,31479,31462,31438,31398,31427,31270,31409,31398,31438,31467,31462,,,,,,,,,,,,,
Wait,13:35:04.297,31403,31415,31415,31380,31322,31339,31456,31456,31374,31392,31432,31421,31363,31339,31374,31403,31450,31369,31398,31374,31421,31479,31386,31403,31409,31287,31374,31427,31438,31438,31322,,,,,,,,,,,,,
Wait,13:35:04.396,31403,31485,31357,31473,31409,31328,31357,31462,31421,31438,31479,31421,31369,31438,31409,31473,31462,31473,31380,31363,31473,31444,31415,31409,31444,31403,31427,31415,31491,31427,31473,,,,,,,,,,,,,
Wait,13:35:04.497,31374,31357,31415,31398,31328,31374,31299,31462,31380,31363,31450,31403,31392,31357,31398,31456,31403,31450,31351,31357,31398,31386,31386,31392,31438,31403,31392,31322,31392,31368,31305,,,,,,,,,,,,,
Wait,13:35:04.597,31322,31427,31380,31433,31368,31403,31212,31392,31374,31368,31467,31450,31374,31415,31409,31485,31497,31438,31363,31363,31462,31479,31450,31392,31421,31247,31403,31351,31427,31403,31392,,,,,,,,,,,,,
Wait,13:35:04.697,31392,31421,31432,31479,31363,31409,31241,31462,31438,31398,31479,31456,31374,31368,31415,31497,31450,31427,31398,31351,31526,31497,31368,31450,31450,31206,31421,31328,31508,31438,31433,,,,,,,,,,,,,
Wait,13:35:04.797,31380,31421,31450,31386,31328,31392,31223,31450,31363,31409,31380,31363,31322,31386,31409,31392,31427,31334,31380,31363,31433,31398,31415,31392,31485,31334,31386,31305,31398,31462,31403,,,,,,,,,,,,,
Wait,13:35:04.897,31421,31403,31386,31444,31305,31415,31241,31444,31386,31456,31438,31432,31386,31363,31334,31456,31427,31258,31357,31334,31450,31421,31415,31421,31502,31363,31322,31398,31438,31450,31427,,,,,,,,,,,,,
Wait,13:35:04.910,31380,31409,31444,31444,31299,31380,31374,31403,31450,31386,31462,31432,31392,31351,31281,31462,31433,31403,31415,31351,31462,31456,31427,31444,31345,31328,31392,31293,31444,31403,31374,,,,,,,,,,,,,
Wait,13:35:05.097,31368,31403,31415,31421,31252,31357,31270,31421,31398,31386,31403,31398,31339,31368,31427,31438,31421,31421,31363,31351,31450,31427,31409,31421,31427,31206,31339,31299,31363,31363,31398,,,,,,,,,,,,,
Wait,13:35:05.197,31351,31444,31328,31473,31299,31299,31369,31369,31398,31392,31438,31438,31345,31421,31374,31409,31380,31310,31398,31351,31473,31444,31403,31456,31450,31345,31357,31281,31444,31421,31403,,,,,,,,,,,,,
Wait,13:35:05.297,31363,31363,31403,31398,31334,31392,31421,31479,31421,31415,31444,31403,31363,31409,31433,31444,31514,31212,31351,31339,31473,31456,31438,31392,31392,31473,31409,31322,31450,31403,31398,,,,,,,,,,,,,
Wait,13:35:05.312,31386,31386,31485,31438,31305,31363,31467,31491,31403,31427,31444,31456,31328,31334,31247,31462,31479,31334,31433,31363,31450,31386,31450,31374,31421,31374,31398,31339,31467,31479,31479,,,,,,,,,,,,,
Wait,13:35:05.497,31345,31386,31444,31508,31368,31392,31282,31450,31363,31357,31444,31467,31392,31363,31415,31386,31427,31473,31369,31392,31450,31438,31415,31462,31438,31403,31316,31380,31456,31403,31444,,,,,,,,,,,,,
Wait,13:35:05.597,31403,31415,31427,31462,31339,31357,31258,31438,31438,31386,31450,31508,31363,31386,31427,31427,31403,31392,31421,31351,31433,31502,31386,31345,31415,31223,31433,31357,31479,31502,31392,,,,,,,,,,,,,
Wait,13:35:05.611,31368,31415,31450,31380,31363,31392,31386,31409,31409,31409,31432,31368,31351,31380,31311,31467,31485,31177,31427,31328,31508,31462,31427,31462,31491,31456,31398,31357,31450,31456,31334,,,,,,,,,,,,,
Wait,13:35:05.798,31380,31432,31415,31421,31316,31380,31374,31473,31438,31409,31415,31467,31392,31380,31374,31502,31409,31305,31380,31322,31409,31450,31398,31456,31415,31403,31438,31386,31508,31438,31444,,,,,,,,,,,,,
Wait,13:35:05.897,31398,31398,31433,31444,31415,31421,31287,31369,31409,31339,31456,31392,31345,31409,31386,31427,31456,31415,31392,31374,31514,31467,31438,31403,31444,31334,31438,31409,31462,31532,31351,,,,,,,,,,,,,
Wait,13:35:05.913,31403,31403,31467,31462,31345,31380,31229,31497,31421,31368,31403,31421,31322,31369,31438,31508,31450,31415,31339,31316,31485,31456,31398,31456,31450,31177,31386,31345,31421,31421,31363,,,,,,,,,,,,,
Wait,13:35:06.097,31456,31421,31438,31403,31357,31438,31421,31491,31421,31409,31444,31508,31398,31415,31444,31415,31491,31409,31444,31380,31398,31456,31386,31409,31479,31363,31386,31357,31433,31450,31398,,,,,,,,,,,,,
Wait,13:35:06.197,31433,31392,31467,31415,31293,31409,31183,31432,31427,31432,31520,31421,31339,31403,31339,31427,31444,31386,31369,31345,31456,31427,31380,31374,31403,31386,31380,31345,31433,31409,31363,,,,,,,,,,,,,
Wait,13:35:06.297,31409,31351,31467,31479,31363,31421,31479,31514,31444,31403,31520,31409,31403,31398,31305,31438,31409,31462,31450,31380,31456,31479,31456,31415,31432,31450,31368,31415,31462,31421,31287,,,,,,,,,,,,,
Wait,13:35:06.312,31409,31374,31398,31398,31398,31415,31281,31438,31386,31374,31368,31380,31357,31427,31345,31427,31427,31386,31438,31351,31438,31456,31421,31427,31415,31421,31433,31357,31398,31380,31345,,,,,,,,,,,,,
Wait,13:35:06.497,31386,31322,31520,31421,31357,31398,31432,31415,31427,31328,31409,31386,31398,31368,31357,31450,31444,31409,31380,31438,31491,31473,31409,31450,31479,31432,31403,31374,31450,31444,31392,,,,,,,,,,,,,
Wait,13:35:06.598,31363,31368,31374,31409,31328,31386,31374,31485,31392,31368,31456,31374,31339,31357,31142,31450,31392,31235,31374,31339,31438,31432,31398,31403,31427,31444,31473,31345,31409,31427,31351,,,,,,,,,,,,,
Wait,13:35:06.697,31409,31380,31409,31409,31310,31392,31224,31438,31357,31415,31392,31392,31322,31450,31398,31502,31450,31450,31403,31380,31392,31433,31339,31415,31508,31223,31380,31299,31415,31392,31456,,,,,,,,,,,,,
Wait,13:35:06.797,31432,31363,31427,31421,31363,31398,31392,31462,31427,31415,31392,31444,31322,31374,31212,31386,31462,31310,31363,31409,31462,31386,31380,31415,31491,31392,31369,31398,31427,31415,31432,,,,,,,,,,,,,
Wait,13:35:06.897,31368,31392,31386,31485,31415,31392,31282,31421,31322,31363,31374,31403,31398,31409,31427,31421,31433,31386,31409,31462,31479,31427,31432,31392,31462,31212,31450,31345,31351,31357,31380,,,,,,,,,,,,,
Wait,13:35:06.997,31374,31421,31433,31415,31392,31380,31351,31497,31427,31351,31473,31398,31409,31386,31392,31473,31479,31450,31334,31398,31456,31462,31421,31473,31473,31345,31369,31351,31392,31462,31427,,,,,,,,,,,,,
Wait,13:35:07.097,31421,31368,31403,31415,31427,31467,31374,31438,31450,31345,31339,31380,31502,31462,31369,31386,31409,31310,31479,31403,31392,31392,31432,31450,31467,31444,31456,31398,31491,31438,31398,,,,,,,,,,,,,
Wait,13:35:07.197,31415,31368,31403,31374,31398,31374,31444,31363,31409,31374,31444,31403,31415,31369,31201,31398,31427,31316,31374,31386,31409,31485,31392,31444,31403,31334,31351,31386,31421,31409,31386,,,,,,,,,,,,,
Wait,13:35:07.297,31421,31363,31386,31467,31415,31497,31409,31427,31392,31386,31310,31392,31363,31485,31293,31427,31380,31276,31415,31380,31514,31432,31357,31386,31427,31444,31462,31456,31398,31409,31322,,,,,,,,,,,,,
Wait,13:35:07.311,31409,31462,31421,31392,31392,31403,31432,31438,31403,31432,31456,31380,31328,31415,31264,31497,31462,31299,31415,31363,31485,31421,31415,31415,31462,31497,31409,31386,31462,31438,31363,,,,,,,,,,,,,
Wait,13:35:07.496,31427,31363,31299,31462,31456,31351,31462,31380,31392,31398,31299,31444,31415,31456,31351,31485,31438,31281,31432,31415,31415,31357,31392,31421,31357,31398,31444,31479,31432,31299,31380,,,,,,,,,,,,,
Wait,13:35:07.596,31479,31380,31479,31462,31345,31339,31229,31427,31398,31398,31462,31438,31409,31345,31380,31450,31427,31456,31386,31421,31502,31473,31438,31438,31427,31357,31334,31427,31444,31444,31339,,,,,,,,,,,,,
Wait,13:35:07.696,31334,31351,31462,31421,31345,31363,31252,31438,31357,31357,31328,31392,31438,31369,31369,31444,31438,31345,31351,31450,31409,31403,31438,31398,31415,31258,31374,31409,31421,31386,31322,,,,,,,,,,,,,
Wait,13:35:07.711,31409,31398,31485,31497,31345,31409,31305,31467,31450,31421,31450,31444,31351,31351,31467,31450,31491,31415,31403,31345,31485,31467,31322,31409,31514,31235,31363,31368,31409,31427,31421,,,,,,,,,,,,,
Wait,13:35:07.813,31287,31374,31345,31380,31386,31287,31316,31409,31345,31392,31403,31450,31438,31380,31316,31363,31473,31351,31479,31374,31427,31438,31409,31334,31392,31316,31392,31450,31433,31473,31374,,,,,,,,,,,,,
Wait,13:35:07.996,31415,31421,31409,31427,31380,31456,31403,31421,31369,31432,31462,31497,31450,31357,31415,31432,31450,31363,31380,31386,31398,31485,31462,31433,31462,31258,31403,31398,31526,31398,31386,,,,,,,,,,,,,
Wait,13:35:08.016,31497,31357,31398,31409,31427,31432,31282,31427,31450,31351,31432,31403,31398,31368,31392,31415,31450,31450,31374,31403,31403,31497,31380,31409,31502,31415,31421,31450,31497,31491,31322,,,,,,,,,,,,,
Wait,13:35:08.196,31409,31392,31491,31467,31427,31398,31264,31427,31467,31409,31467,31450,31380,31403,31345,31456,31491,31403,31433,31398,31438,31462,31438,31380,31473,31345,31433,31403,31438,31432,31444,,,,,,,,,,,,,
Wait,13:35:08.296,31433,31351,31444,31392,31409,31374,31438,31409,31415,31398,31368,31345,31368,31450,31223,31456,31456,31311,31368,31363,31403,31473,31456,31345,31427,31433,31433,31438,31380,31363,31322,,,,,,,,,,,,,
Wait,13:35:08.396,31450,31380,31403,31374,31368,31450,31322,31491,31467,31351,31415,31403,31415,31403,31398,31497,31514,31473,31456,31462,31485,31502,31398,31433,31462,31270,31456,31415,31456,31444,31328,,,,,,,,,,,,,
Wait,13:35:08.412,31386,31334,31462,31357,31305,31409,31427,31421,31351,31380,31497,31322,31438,31403,31258,31497,31438,31217,31409,31450,31398,31421,31450,31467,31438,31456,31392,31427,31299,31444,31264,,,,,,,,,,,,,
Wait,13:35:08.516,31392,31386,31479,31392,31386,31433,31392,31432,31409,31363,31415,31398,31421,31409,31369,31473,31444,31340,31427,31415,31444,31421,31409,31433,31432,31322,31392,31363,31316,31456,31374,,,,,,,,,,,,,
Wait,13:35:08.697,31392,31427,31432,31415,31403,31398,31177,31444,31392,31345,31444,31433,31398,31386,31392,31403,31456,31514,31491,31380,31299,31403,31293,31392,31473,31328,31444,31368,31438,31427,31392,,,,,,,,,,,,,
Wait,13:35:08.710,31415,31380,31456,31403,31409,31386,31485,31415,31415,31363,31398,31386,31403,31380,31328,31473,31479,31392,31369,31444,31508,31473,31368,31491,31497,31415,31433,31456,31363,31421,31357,,,,,,,,,,,,,
Wait,13:35:08.896,31403,31491,31450,31380,31403,31450,31223,31450,31427,31380,31403,31328,31456,31415,31438,31456,31427,31351,31421,31485,31456,31398,31345,31415,31520,31322,31398,31398,31345,31427,31392,,,,,,,,,,,,,
Wait,13:35:08.996,31409,31386,31392,31438,31398,31491,31288,31467,31427,31334,31444,31374,31467,31456,31479,31462,31433,31444,31462,31363,31543,31514,31398,31450,31467,31282,31409,31467,31403,31473,31357,,,,,,,,,,,,,
Wait,13:35:09.024,31403,31386,31369,31415,31415,31427,31357,31438,31421,31427,31386,31386,31444,31415,31357,31403,31508,31502,31427,31409,31444,31427,31386,31450,31433,31217,31392,31409,31380,31380,31502,,,,,,,,,,,,,
Wait,13:35:09.196,31433,31345,31421,31392,31409,31398,31299,31479,31415,31369,31456,31421,31392,31392,31427,31462,31462,31311,31409,31421,31380,31415,31415,31444,31450,31369,31392,31421,31328,31380,31328,,,,,,,,,,,,,
Wait,13:35:09.296,31415,31345,31403,31403,31398,31398,31299,31462,31427,31369,31462,31421,31357,31398,31363,31421,31491,31450,31363,31421,31409,31386,31334,31386,31485,31299,31403,31328,31369,31450,31398,,,,,,,,,,,,,
Wait,13:35:09.397,31415,31450,31409,31403,31368,31473,31433,31432,31444,31438,31432,31316,31409,31403,31189,31450,31432,31264,31415,31456,31363,31479,31409,31450,31462,31462,31398,31409,31462,31444,31351,,,,,,,,,,,,,
Wait,13:35:09.497,31450,31374,31403,31351,31392,31421,31334,31398,31403,31398,31415,31316,31374,31427,31444,31433,31450,31433,31409,31409,31392,31508,31456,31357,31415,31223,31380,31392,31351,31409,31351,,,,,,,,,,,,,
Wait,13:35:09.596,31456,31456,31415,31386,31403,31415,31398,31392,31415,31433,31450,31421,31427,31398,31409,31473,31462,31398,31433,31403,31415,31427,31392,31444,31491,31328,31398,31374,31403,31438,31345,,,,,,,,,,,,,
Wait,13:35:09.696,31433,31421,31450,31351,31386,31380,31438,31415,31432,31409,31427,31386,31363,31421,31409,31467,31421,31310,31403,31409,31444,31415,31386,31462,31462,31386,31485,31421,31398,31374,31438,,,,,,,,,,,,,
Wait,13:35:09.796,31444,31322,31415,31386,31438,31403,31351,31450,31427,31334,31421,31386,31444,31380,31386,31508,31421,31340,31421,31403,31363,31467,31432,31427,31479,31421,31392,31467,31421,31432,31415,,,,,,,,,,,,,
Wait,13:35:09.896,31427,31456,31357,31438,31427,31392,31328,31497,31421,31415,31433,31444,31369,31438,31415,31450,31532,31456,31432,31345,31438,31450,31427,31415,31438,31374,31368,31351,31433,31479,31432,,,,,,,,,,,,,
Wait,13:35:09.996,31427,31433,31409,31432,31380,31438,31398,31427,31363,31438,31398,31380,31403,31351,31247,31444,31456,31224,31386,31421,31421,31345,31398,31450,31456,31497,31380,31433,31450,31433,31322,,,,,,,,,,,,,
Gesture 1,13:35:10.096,31438,31409,31462,31403,31421,31398,31462,31374,31369,31386,31450,31374,31368,31415,31247,31438,31427,31281,31462,31409,31293,31432,31398,31374,31473,31497,31456,31345,31438,31438,31357,,,,,,,,,,,,,
Gesture 1,13:35:10.197,31438,31334,31491,31368,31398,31409,31374,31462,31357,31386,31520,31369,31374,31392,31462,31403,31520,31456,31369,31386,31392,31467,31398,31497,31421,31247,31404,31374,31363,31398,31386,,,,,,,,,,,,,
Gesture 1,13:35:10.297,31386,31421,31532,31462,31386,31462,31270,31392,31467,31421,31421,31374,31374,31409,31467,31473,31450,31438,31438,31368,31380,31444,31444,31444,31398,31374,31368,31427,31310,31427,31368,,,,,,,,,,,,,
Gesture 1,13:35:10.396,31427,31374,31450,31357,31374,31380,31293,31438,31409,31328,31438,31316,31380,31351,31398,31467,31467,31409,31380,31374,31374,31415,31444,31398,31467,31259,31403,31351,31322,31398,31351,,,,,,,,,,,,,
Gesture 1,13:35:10.496,31444,31398,31386,31368,31415,31403,31363,31450,31421,31398,31415,31415,31427,31433,31310,31467,31456,31398,31392,31421,31456,31392,31433,31438,31392,31316,31444,31380,31357,31398,31380,,,,,,,,,,,,,
Gesture 1,13:35:10.597,31421,31450,31421,31392,31368,31369,31252,31462,31421,31450,31415,31415,31368,31374,31467,31450,31357,31386,31386,31444,31363,31502,31444,31433,31421,31218,31386,31380,31368,31456,31450,,,,,,,,,,,,,
Gesture 1,13:35:10.696,31438,31479,31438,31374,31368,31380,31351,31462,31403,31427,31479,31368,31403,31427,31223,31537,31450,31235,31369,31444,31479,31444,31450,31432,31450,31462,31427,31409,31310,31415,31380,,,,,,,,,,,,,
Gesture 1,13:35:10.796,31415,31380,31444,31462,31386,31392,31491,31392,31403,31398,31450,31409,31403,31357,31247,31432,31444,31241,31421,31398,31380,31438,31421,31409,31456,31427,31386,31368,31398,31427,31392,,,,,,,,,,,,,
Gesture 1,13:35:10.897,31456,31409,31456,31403,31421,31403,31479,31403,31392,31403,31479,31357,31462,31421,31293,31427,31485,31253,31427,31456,31369,31491,31415,31345,31456,31438,31386,31386,31368,31450,31415,,,,,,,,,,,,,
Gesture 1,13:35:10.997,31427,31427,31409,31363,31380,31432,31252,31433,31398,31450,31485,31345,31386,31467,31264,31438,31462,31398,31339,31357,31444,31432,31398,31427,31421,31363,31415,31409,31339,31415,31322,,,,,,,,,,,,,
Gesture 1,13:35:11.096,31403,31438,31386,31380,31392,31427,31287,31520,31444,31450,31409,31415,31432,31403,31462,31491,31491,31473,31444,31432,31427,31462,31508,31444,31467,31223,31409,31392,31380,31479,31392,,,,,,,,,,,,,
Gesture 1,13:35:11.196,31491,31473,31438,31368,31427,31433,31374,31444,31363,31386,31438,31398,31374,31369,31427,31462,31444,31508,31409,31421,31462,31415,31409,31473,31438,31380,31386,31421,31409,31433,31502,,,,,,,,,,,,,
Gesture 1,13:35:11.296,31409,31386,31374,31421,31380,31398,31392,31438,31415,31369,31473,31386,31398,31432,31369,31409,31427,31392,31415,31473,31427,31456,31438,31322,31467,31392,31432,31392,31386,31491,31427,,,,,,,,,,,,,
Gesture 1,13:35:11.396,31427,31467,31473,31444,31386,31409,31351,31398,31462,31421,31403,31485,31363,31322,31398,31456,31462,31473,31421,31398,31415,31467,31432,31433,31479,31392,31427,31421,31415,31462,31374,,,,,,,,,,,,,
Gesture 1,13:35:11.496,31386,31404,31438,31403,31357,31357,31374,31444,31427,31374,31386,31398,31398,31403,31380,31432,31415,31386,31368,31380,31374,31479,31479,31444,31403,31386,31398,31403,31345,31421,31438,,,,,,,,,,,,,
Gesture 1,13:35:11.596,31398,31444,31444,31392,31432,31409,31462,31403,31433,31456,31444,31374,31363,31374,31398,31508,31467,31427,31386,31403,31450,31462,31456,31456,31485,31444,31438,31374,31444,31508,31421,,,,,,,,,,,,,
Gesture 1,13:35:11.697,31473,31438,31403,31386,31438,31351,31415,31438,31467,31421,31479,31433,31368,31421,31421,31415,31415,31403,31363,31438,31403,31467,31491,31386,31398,31485,31415,31415,31328,31462,31374,,,,,,,,,,,,,
Gesture 1,13:35:11.797,31456,31403,31409,31403,31403,31328,31421,31508,31427,31386,31520,31398,31403,31392,31450,31450,31462,31427,31409,31409,31456,31485,31462,31462,31427,31438,31369,31345,31433,31473,31363,,,,,,,,,,,,,
Gesture 1,13:35:11.896,31386,31502,31473,31398,31398,31421,31368,31450,31380,31433,31427,31374,31403,31345,31450,31363,31502,31386,31427,31415,31374,31427,31456,31427,31479,31456,31456,31467,31473,31462,31409,,,,,,,,,,,,,
Gesture 1,13:35:11.996,31398,31491,31415,31363,31363,31363,31438,31514,31473,31444,31409,31403,31438,31398,31409,31444,31502,31473,31351,31427,31462,31479,31491,31433,31450,31456,31403,31450,31374,31415,31421,,,,,,,,,,,,,
Gesture 1,13:35:12.017,31421,31450,31433,31351,31392,31368,31444,31427,31444,31392,31403,31415,31357,31369,31415,31415,31462,31392,31415,31432,31363,31438,31398,31444,31456,31351,31374,31392,31409,31473,31444,,,,,,,,,,,,,
Gesture 1,13:35:12.196,31409,31456,31433,31403,31415,31339,31433,31427,31392,31415,31526,31438,31392,31363,31467,31415,31421,31421,31316,31398,31485,31520,31403,31456,31462,31438,31409,31432,31497,31543,31438,,,,,,,,,,,,,
Gesture 1,13:35:12.296,31450,31456,31415,31386,31398,31374,31339,31438,31502,31450,31450,31345,31398,31415,31415,31357,31432,31368,31415,31386,31374,31438,31415,31398,31467,31427,31403,31432,31409,31421,31514,,,,,,,,,,,,,
Gesture 1,13:35:12.311,31491,31380,31421,31532,31415,31427,31473,31543,31485,31409,31444,31432,31403,31450,31456,31450,31520,31450,31433,31392,31433,31467,31497,31421,31497,31427,31456,31432,31386,31479,31456,,,,,,,,,,,,,
Gesture 1,13:35:12.496,31456,31392,31386,31415,31444,31444,31444,31403,31386,31427,31438,31415,31345,31357,31369,31444,31368,31409,31398,31409,31427,31444,31380,31438,31462,31357,31409,31432,31398,31491,31462,,,,,,,,,,,,,
Gesture 1,13:35:12.596,31450,31438,31450,31444,31433,31386,31438,31421,31438,31421,31444,31398,31415,31363,31380,31456,31508,31485,31427,31398,31444,31456,31479,31467,31485,31369,31450,31374,31432,31473,31473,,,,,,,,,,,,,
Gesture 1,13:35:12.696,31438,31462,31339,31438,31403,31403,31386,31403,31450,31450,31491,31427,31374,31363,31380,31403,31363,31380,31398,31386,31427,31491,31433,31427,31369,31380,31345,31374,31421,31415,31467,,,,,,,,,,,,,
Gesture 1,13:35:12.796,31444,31392,31473,31467,31473,31433,31415,31438,31497,31334,31456,31444,31421,31322,31433,31438,31462,31369,31357,31415,31409,31508,31398,31415,31421,31403,31380,31456,31392,31456,31438,,,,,,,,,,,,,
Gesture 1,13:35:12.896,31386,31374,31421,31368,31345,31392,31398,31392,31479,31403,31450,31415,31380,31380,31427,31409,31415,31415,31386,31380,31473,31427,31432,31403,31398,31299,31403,31421,31456,31392,31438,,,,,,,,,,,,,
Gesture 1,13:35:12.996,31444,31438,31374,31415,31374,31427,31479,31462,31398,31415,31427,31374,31427,31328,31368,31450,31433,31450,31450,31456,31473,31392,31409,31392,31421,31398,31398,31386,31363,31491,31438,,,,,,,,,,,,,
Gesture 1,13:35:13.096,31432,31368,31427,31444,31409,31351,31369,31363,31351,31380,31374,31398,31368,31368,31334,31450,31328,31421,31339,31403,31467,31438,31386,31374,31339,31305,31398,31508,31357,31438,31403,,,,,,,,,,,,,
Gesture 1,13:35:13.196,31444,31415,31514,31456,31444,31398,31427,31438,31433,31462,31462,31415,31386,31386,31462,31415,31415,31415,31398,31421,31491,31543,31398,31456,31403,31415,31421,31532,31462,31462,31380,,,,,,,,,,,,,
Gesture 1,13:35:13.210,31421,31409,31386,31351,31374,31374,31386,31403,31415,31456,31456,31386,31357,31305,31415,31351,31322,31386,31299,31421,31386,31421,31456,31421,31363,31322,31322,31403,31374,31415,31421,,,,,,,,,,,,,
Gesture 1,13:35:13.396,31369,31450,31462,31467,31415,31374,31398,31433,31392,31438,31462,31386,31398,31363,31351,31264,31404,31421,31339,31351,31433,31438,31479,31403,31357,31392,31363,31433,31444,31473,31450,,,,,,,,,,,,,
Gesture 1,13:35:13.496,31456,31462,31398,31421,31380,31368,31450,31351,31421,31450,31467,31450,31450,31334,31409,31398,31409,31351,31450,31392,31403,31438,31485,31421,31432,31432,31363,31450,31432,31514,31427,,,,,,,,,,,,,
Gesture 1,13:35:13.516,31427,31427,31386,31450,31421,31357,31369,31392,31444,31392,31497,31444,31380,31339,31392,31363,31310,31409,31398,31415,31450,31514,31421,31415,31438,31398,31409,31427,31467,31508,31497,,,,,,,,,,,,,
Gesture 1,13:35:13.615,31427,31427,31473,31386,31415,31339,31351,31392,31427,31322,31450,31374,31403,31305,31398,31374,31357,31380,31386,31456,31386,31432,31444,31479,31380,31409,31368,31485,31363,31444,31351,,,,,,,,,,,,,
Gesture 1,13:35:13.796,31403,31450,31444,31456,31380,31380,31409,31473,31467,31403,31444,31450,31415,31369,31398,31438,31421,31421,31339,31409,31409,31502,31374,31403,31421,31351,31374,31398,31462,31526,31479,,,,,,,,,,,,,
Gesture 1,13:35:13.897,31403,31456,31433,31409,31421,31322,31392,31380,31409,31427,31485,31409,31415,31316,31345,31392,31386,31386,31380,31438,31432,31479,31398,31386,31368,31339,31316,31374,31456,31473,31497,,,,,,,,,,,,,
Gesture 1,13:35:13.996,31403,31421,31398,31520,31380,31339,31409,31433,31456,31438,31561,31479,31450,31351,31438,31462,31415,31433,31287,31398,31473,31467,31392,31415,31421,31380,31363,31380,31450,31508,31421,,,,,,,,,,,,,
Gesture 1,13:35:14.096,31432,31369,31444,31380,31409,31403,31432,31357,31433,31462,31438,31456,31427,31334,31357,31351,31374,31351,31368,31415,31398,31450,31427,31398,31386,31403,31316,31409,31479,31444,31409,,,,,,,,,,,,,
Gesture 1,13:35:14.196,31380,31415,31520,31392,31421,31421,31444,31374,31473,31380,31502,31363,31421,31421,31398,31421,31415,31438,31427,31398,31450,31537,31444,31415,31427,31415,31363,31421,31374,31450,31403,,,,,,,,,,,,,
Gesture 1,13:35:14.297,31403,31450,31456,31374,31427,31363,31363,31473,31421,31374,31497,31328,31409,31374,31374,31357,31438,31374,31357,31433,31409,31467,31386,31386,31409,31351,31380,31351,31368,31456,31462,,,,,,,,,,,,,
Gesture 1,13:35:14.396,31415,31351,31514,31444,31409,31369,31369,31433,31450,31409,31444,31392,31456,31351,31374,31450,31415,31421,31328,31403,31351,31497,31432,31415,31403,31421,31351,31392,31467,31403,31392,,,,,,,,,,,,,
Gesture 1,13:35:14.411,31392,31485,31450,31403,31357,31328,31310,31433,31427,31357,31520,31351,31380,31328,31374,31415,31392,31380,31374,31380,31368,31491,31427,31462,31345,31380,31374,31369,31287,31491,31433,,,,,,,,,,,,,
Gesture 1,13:35:14.597,31374,31421,31334,31403,31368,31444,31374,31195,31432,31421,31467,31450,31392,31374,31392,31392,31328,31409,31374,31398,31415,31467,31450,31421,31386,31409,31374,31392,31415,31491,31415,,,,,,,,,,,,,
Gesture 1,13:35:14.696,31450,31369,31497,31328,31310,31427,31351,31456,31398,31403,31502,31403,31345,31322,31368,31235,31392,31328,31305,31334,31403,31502,31456,31421,31421,31357,31339,31357,31351,31432,31432,,,,,,,,,,,,,
Gesture 1,13:35:14.796,31398,31415,31485,31368,31392,31334,31351,31357,31409,31392,31462,31415,31403,31345,31351,31363,31386,31398,31386,31444,31473,31438,31456,31438,31287,31374,31322,31438,31392,31438,31392,,,,,,,,,,,,,
Gesture 1,13:35:14.896,31427,31398,31450,31450,31433,31380,31322,31409,31368,31403,31502,31374,31444,31363,31275,31311,31450,31374,31357,31380,31357,31415,31433,31432,31345,31392,31357,31386,31520,31479,31444,,,,,,,,,,,,,
Gesture 1,13:35:14.997,31398,31409,31427,31392,31409,31345,31334,31334,31369,31403,31444,31392,31409,31357,31374,31357,31259,31351,31374,31357,31409,31450,31444,31427,31409,31357,31386,31374,31345,31456,31415,,,,,,,,,,,,,
Gesture 1,13:35:15.096,31415,31444,31514,31398,31363,31421,31415,31241,31403,31316,31491,31339,31409,31380,31374,31421,31421,31427,31386,31368,31433,31444,31479,31415,31235,31334,31403,31398,31374,31502,31339,,,,,,,,,,,,,
Gesture 1,13:35:15.111,31433,31450,31433,31450,31351,31409,31409,31177,31368,31473,31462,31444,31427,31339,31398,31392,31328,31409,31380,31433,31456,31549,31450,31398,31235,31398,31363,31392,31427,31485,31328,,,,,,,,,,,,,
Gesture 1,13:35:15.297,31392,31409,31497,31380,31398,31368,31438,31340,31433,31409,31450,31427,31409,31374,31409,31363,31450,31374,31386,31444,31456,31473,31497,31456,31264,31433,31380,31398,31403,31473,31369,,,,,,,,,,,,,
Gesture 1,13:35:15.396,31450,31357,31491,31427,31433,31334,31374,31224,31421,31339,31456,31403,31427,31427,31334,31398,31403,31386,31421,31403,31473,31432,31363,31421,31200,31403,31369,31456,31374,31497,31398,,,,,,,,,,,,,
Gesture 1,13:35:15.496,31438,31368,31502,31427,31456,31398,31392,31444,31456,31369,31508,31392,31398,31299,31392,31241,31270,31409,31351,31427,31409,31473,31438,31427,31433,31409,31310,31415,31421,31485,31299,,,,,,,,,,,,,
Gesture 1,13:35:15.597,31363,31415,31479,31369,31328,31409,31403,31131,31433,31351,31444,31339,31398,31339,31339,31351,31485,31380,31369,31386,31369,31432,31462,31415,31357,31386,31368,31415,31328,31520,31398,,,,,,,,,,,,,
Gesture 1,13:35:15.696,31403,31438,31398,31368,31369,31392,31345,31241,31421,31409,31450,31421,31392,31328,31380,31479,31374,31374,31380,31409,31444,31462,31450,31502,31253,31351,31357,31450,31316,31432,31363,,,,,,,,,,,,,
Gesture 1,13:35:15.797,31369,31403,31438,31398,31433,31398,31374,31386,31363,31380,31508,31322,31369,31403,31374,31282,31229,31386,31415,31444,31409,31485,31421,31357,31380,31369,31403,31351,31374,31438,31357,,,,,,,,,,,,,
Gesture 1,13:35:15.897,31462,31421,31502,31398,31328,31322,31351,31380,31409,31444,31438,31386,31421,31421,31380,31328,31264,31403,31363,31438,31392,31485,31438,31415,31293,31403,31363,31462,31409,31467,31473,,,,,,,,,,,,,
Gesture 1,13:35:15.996,31415,31444,31427,31392,31368,31334,31357,31194,31427,31398,31502,31345,31427,31386,31421,31421,31374,31467,31398,31450,31444,31491,31392,31374,31293,31380,31386,31345,31432,31456,31462,,,,,,,,,,,,,
Gesture 1,13:35:16.097,31433,31456,31438,31351,31380,31351,31299,31299,31403,31357,31485,31374,31328,31374,31322,31369,31374,31386,31345,31380,31444,31433,31369,31386,31270,31339,31427,31316,31368,31450,31467,,,,,,,,,,,,,
Gesture 1,13:35:16.196,31398,31403,31462,31433,31363,31351,31351,31223,31409,31450,31421,31421,31409,31345,31339,31305,31386,31310,31334,31351,31380,31467,31392,31316,31183,31310,31322,31386,31421,31479,31398,,,,,,,,,,,,,
Gesture 1,13:35:16.297,31409,31369,31479,31374,31409,31345,31339,31345,31380,31363,31415,31398,31334,31386,31415,31270,31224,31386,31398,31415,31380,31473,31427,31386,31403,31363,31409,31409,31374,31444,31363,,,,,,,,,,,,,
Gesture 1,13:35:16.396,31328,31421,31438,31403,31392,31386,31386,31409,31345,31432,31467,31403,31403,31322,31450,31374,31258,31357,31357,31345,31421,31450,31427,31351,31438,31334,31345,31392,31421,31473,31415,,,,,,,,,,,,,
Gesture 1,13:35:16.417,31438,31374,31212,31310,31415,31409,31438,31374,31427,31421,31282,31310,31409,31444,31363,31386,31398,31409,31392,31421,31334,31305,31415,31421,31386,31421,31409,31403,31334,31264,31357,,,,,,,,,,,,,
Gesture 1,13:35:16.596,31409,31444,31473,31456,31409,31339,31368,31363,31403,31444,31497,31392,31386,31322,31363,31357,31259,31369,31368,31386,31456,31491,31392,31467,31438,31415,31339,31368,31456,31497,31497,,,,,,,,,,,,,
Gesture 1,13:35:16.696,31386,31380,31409,31363,31444,31421,31386,31409,31339,31502,31444,31398,31432,31363,31374,31415,31386,31363,31380,31421,31415,31456,31444,31427,31305,31403,31415,31427,31415,31444,31444,,,,,,,,,,,,,
Gesture 1,13:35:16.796,31403,31421,31508,31363,31398,31345,31415,31357,31368,31345,31526,31432,31363,31380,31421,31345,31322,31357,31363,31398,31456,31456,31456,31444,31223,31386,31310,31398,31392,31491,31386,,,,,,,,,,,,,
Gesture 1,13:35:16.896,31427,31392,31450,31374,31421,31316,31368,31218,31462,31421,31444,31380,31450,31345,31287,31363,31293,31374,31334,31386,31386,31409,31537,31415,31276,31322,31287,31438,31334,31421,31374,,,,,,,,,,,,,
Gesture 1,13:35:16.997,31473,31427,31508,31421,31415,31386,31421,31276,31444,31438,31485,31392,31380,31380,31380,31433,31497,31403,31374,31438,31444,31502,31345,31438,31444,31316,31368,31444,31438,31543,31409,,,,,,,,,,,,,
Gesture 1,13:35:17.097,31450,31398,31456,31433,31392,31392,31380,31258,31421,31409,31473,31444,31380,31305,31380,31427,31334,31357,31380,31438,31427,31485,31409,31380,31293,31456,31374,31467,31479,31514,31409,,,,,,,,,,,,,
Gesture 1,13:35:17.110,31415,31433,31526,31456,31432,31322,31438,31403,31368,31345,31549,31374,31427,31339,31409,31374,31258,31427,31310,31456,31450,31497,31444,31427,31508,31467,31305,31403,31334,31520,31409,,,,,,,,,,,,,
Gesture 1,13:35:17.214,31409,31398,31432,31386,31368,31339,31374,31392,31328,31409,31491,31398,31351,31299,31357,31206,31247,31403,31345,31363,31427,31479,31409,31398,31450,31363,31380,31409,31357,31450,31415,,,,,,,,,,,,,
Gesture 1,13:35:17.313,31368,31421,31532,31380,31427,31462,31392,31392,31369,31427,31526,31386,31462,31380,31368,31345,31415,31421,31357,31456,31433,31497,31462,31433,31340,31386,31386,31479,31473,31520,31386,,,,,,,,,,,,,
Gesture 1,13:35:17.496,31363,31386,31491,31415,31497,31421,31345,31305,31427,31374,31502,31351,31456,31322,31363,31398,31403,31351,31386,31473,31403,31526,31421,31438,31224,31380,31328,31473,31368,31432,31415,,,,,,,,,,,,,
Gesture 1,13:35:17.596,31444,31456,31427,31415,31450,31444,31403,31473,31386,31427,31502,31339,31502,31357,31316,31200,31345,31357,31380,31421,31409,31450,31392,31374,31386,31374,31339,31450,31462,31450,31392,,,,,,,,,,,,,
Gesture 1,13:35:17.696,31415,31386,31473,31450,31485,31386,31345,31462,31357,31380,31473,31403,31450,31351,31351,31247,31299,31334,31386,31392,31421,31438,31357,31398,31305,31357,31310,31427,31369,31438,31409,,,,,,,,,,,,,
Gesture 1,13:35:17.796,31363,31415,31462,31462,31508,31421,31409,31287,31421,31409,31456,31403,31479,31473,31398,31456,31403,31374,31386,31462,31421,31467,31450,31374,31247,31479,31409,31479,31403,31450,31351,,,,,,,,,,,,,
Gesture 1,13:35:17.896,31316,31369,31473,31386,31450,31363,31374,31392,31334,31345,31403,31345,31398,31357,31363,31432,31316,31339,31403,31398,31433,31467,31398,31450,31322,31345,31363,31438,31328,31456,31392,,,,,,,,,,,,,
Gesture 1,13:35:17.996,31363,31444,31433,31456,31409,31427,31369,31264,31351,31368,31427,31427,31380,31398,31398,31450,31467,31392,31392,31502,31467,31502,31409,31386,31287,31403,31467,31473,31433,31497,31380,,,,,,,,,,,,,
Gesture 1,13:35:18.096,31403,31380,31368,31427,31467,31421,31392,31398,31339,31427,31398,31432,31421,31398,31368,31247,31415,31380,31357,31450,31467,31456,31386,31409,31322,31427,31334,31438,31450,31403,31456,,,,,,,,,,,,,
Gesture 1,13:35:18.196,31392,31421,31479,31392,31409,31368,31328,31514,31386,31427,31438,31462,31398,31398,31421,31229,31409,31386,31368,31444,31514,31508,31450,31351,31427,31398,31351,31398,31415,31503,31438,,,,,,,,,,,,,
Gesture 1,13:35:18.211,31398,31386,31392,31380,31386,31363,31398,31276,31392,31380,31427,31403,31403,31386,31351,31357,31351,31374,31380,31421,31421,31398,31415,31351,31345,31345,31357,31368,31386,31403,31398,,,,,,,,,,,,,
Gesture 1,13:35:18.311,31334,31415,31316,31444,31421,31386,31374,31473,31357,31310,31421,31386,31438,31438,31421,31258,31259,31380,31427,31398,31427,31421,31438,31328,31415,31380,31392,31473,31485,31462,31473,,,,,,,,,,,,,
Gesture 1,13:35:18.411,31392,31415,31438,31305,31403,31334,31316,31427,31398,31386,31386,31328,31438,31299,31316,31351,31334,31374,31409,31398,31322,31380,31398,31351,31427,31351,31322,31427,31357,31438,31374,,,,,,,,,,,,,
Gesture 1,13:35:18.596,31351,31351,31438,31374,31433,31386,31345,31351,31328,31380,31433,31421,31427,31409,31409,31253,31223,31369,31380,31386,31403,31438,31380,31357,31351,31392,31386,31421,31467,31467,31316,,,,,,,,,,,,,
Gesture 1,13:35:18.697,31386,31409,31450,31432,31421,31374,31310,31444,31398,31374,31450,31415,31386,31357,31322,31253,31293,31374,31374,31450,31392,31415,31433,31334,31403,31334,31380,31380,31374,31403,31345,,,,,,,,,,,,,
Gesture 1,13:35:18.796,31334,31310,31374,31473,31473,31485,31369,31195,31392,31351,31403,31392,31433,31444,31374,31363,31497,31386,31403,31409,31427,31462,31392,31351,31392,31369,31374,31415,31444,31427,31403,,,,,,,,,,,,,
Gesture 1,13:35:18.896,31432,31409,31491,31403,31403,31380,31386,31264,31322,31427,31444,31368,31351,31363,31357,31409,31403,31328,31374,31409,31345,31444,31421,31398,31311,31339,31357,31415,31444,31456,31421,,,,,,,,,,,,,
Gesture 1,13:35:18.996,31310,31363,31433,31433,31433,31462,31415,31276,31351,31374,31409,31345,31456,31398,31444,31386,31287,31403,31456,31438,31380,31427,31386,31351,31357,31380,31421,31392,31473,31456,31415,,,,,,,,,,,,,
Gesture 1,13:35:19.096,31386,31334,31479,31368,31374,31339,31339,31241,31374,31392,31467,31374,31392,31398,31351,31345,31351,31322,31339,31351,31392,31456,31462,31368,31287,31368,31363,31450,31415,31467,31369,,,,,,,,,,,,,
Gesture 1,13:35:19.196,31374,31398,31438,31310,31473,31357,31345,31374,31392,31316,31427,31345,31438,31403,31345,31427,31386,31363,31380,31491,31433,31427,31403,31374,31218,31398,31432,31450,31386,31444,31339,,,,,,,,,,,,,
Gesture 1,13:35:19.297,31427,31409,31386,31398,31357,31363,31334,31526,31427,31403,31473,31421,31403,31374,31357,31200,31374,31334,31322,31427,31398,31497,31444,31334,31357,31351,31363,31345,31386,31409,31398,,,,,,,,,,,,,
Gesture 1,13:35:19.396,31380,31351,31398,31334,31462,31363,31421,31223,31374,31392,31450,31322,31450,31345,31345,31485,31444,31316,31403,31450,31438,31438,31398,31374,31235,31398,31363,31456,31374,31467,31386,,,,,,,,,,,,,
Gesture 1,13:35:19.496,31386,31421,31444,31438,31403,31409,31339,31357,31374,31415,31485,31398,31368,31380,31357,31374,31421,31386,31427,31380,31322,31456,31427,31409,31229,31357,31322,31409,31526,31438,31514,,,,,,,,,,,,,
Gesture 1,13:35:19.515,31386,31363,31462,31438,31409,31357,31339,31415,31386,31322,31438,31357,31433,31339,31357,31224,31276,31369,31398,31456,31427,31438,31380,31345,31380,31357,31339,31403,31351,31462,31299,,,,,,,,,,,,,
Gesture 1,13:35:19.696,31479,31462,31467,31392,31374,31363,31345,31392,31398,31386,31421,31450,31409,31374,31328,31491,31497,31398,31334,31403,31444,31456,31403,31386,31229,31328,31386,31427,31386,31421,31444,,,,,,,,,,,,,
Gesture 1,13:35:19.796,31392,31334,31374,31421,31386,31310,31374,31339,31363,31351,31450,31380,31415,31334,31386,31386,31427,31374,31374,31479,31421,31462,31450,31438,31398,31368,31310,31392,31374,31374,31415,,,,,,,,,,,,,
Gesture 1,13:35:19.896,31386,31392,31508,31357,31415,31357,31363,31473,31392,31398,31479,31374,31473,31415,31415,31288,31328,31398,31357,31421,31415,31514,31467,31462,31479,31409,31322,31467,31409,31491,31357,,,,,,,,,,,,,
Gesture 1,13:35:19.911,31334,31374,31403,31386,31473,31374,31368,31421,31363,31380,31427,31403,31403,31299,31409,31235,31224,31334,31386,31415,31450,31502,31403,31392,31444,31357,31368,31444,31398,31415,31363,,,,,,,,,,,,,
Gesture 2,13:35:20.096,31421,31403,31427,31339,31427,31345,31403,31421,31462,31398,31432,31351,31357,31357,31351,31241,31247,31392,31339,31450,31450,31444,31392,31427,31479,31339,31334,31368,31398,31456,31374,,,,,,,,,,,,,
Gesture 2,13:35:20.197,31415,31415,31473,31467,31456,31392,31310,31392,31403,31450,31479,31450,31409,31339,31415,31409,31462,31386,31386,31433,31415,31462,31415,31409,31374,31345,31409,31380,31444,31456,31351,,,,,,,,,,,,,
Gesture 2,13:35:20.296,31415,31479,31444,31491,31380,31392,31438,31444,31462,31398,31497,31497,31450,31415,31403,31427,31473,31398,31403,31415,31392,31485,31444,31433,31473,31403,31432,31415,31485,31526,31363,,,,,,,,,,,,,
Gesture 2,13:35:20.397,31398,31380,31345,31392,31450,31339,31386,31368,31386,31357,31438,31450,31438,31398,31363,31421,31444,31310,31392,31444,31427,31462,31438,31345,31374,31357,31345,31421,31462,31473,31345,,,,,,,,,,,,,
Gesture 2,13:35:20.496,31462,31363,31497,31415,31363,31415,31380,31409,31392,31363,31479,31415,31427,31415,31386,31427,31403,31369,31374,31386,31432,31432,31392,31444,31369,31386,31374,31386,31345,31427,31345,,,,,,,,,,,,,
Gesture 2,13:35:20.596,31322,31328,31462,31432,31374,31275,31427,31438,31403,31316,31462,31502,31363,31357,31380,31444,31444,31409,31398,31386,31403,31491,31386,31386,31380,31386,31392,31427,31403,31456,31369,,,,,,,,,,,,,
Gesture 2,13:35:20.696,31386,31363,31456,31421,31432,31351,31380,31456,31374,31403,31467,31380,31392,31357,31351,31438,31380,31363,31392,31444,31403,31508,31380,31398,31369,31374,31345,31438,31438,31473,31369,,,,,,,,,,,,,
Gesture 2,13:35:20.797,31421,31374,31392,31438,31450,31345,31386,31409,31450,31421,31392,31421,31444,31386,31380,31450,31380,31368,31374,31415,31543,31380,31351,31398,31433,31322,31444,31374,31438,31427,31415,,,,,,,,,,,,,
Gesture 2,13:35:20.896,31421,31345,31485,31421,31374,31374,31380,31363,31409,31339,31532,31432,31386,31409,31374,31363,31473,31421,31363,31380,31462,31438,31438,31403,31403,31392,31427,31427,31450,31502,31334,,,,,,,,,,,,,
Gesture 2,13:35:20.996,31363,31293,31415,31404,31467,31392,31398,31427,31427,31374,31421,31438,31456,31403,31403,31345,31485,31386,31409,31432,31421,31392,31392,31392,31363,31386,31403,31497,31368,31392,31310,,,,,,,,,,,,,
Gesture 2,13:35:21.096,31409,31345,31473,31345,31380,31403,31374,31392,31409,31328,31433,31334,31427,31421,31398,31438,31369,31374,31438,31415,31415,31456,31392,31322,31433,31398,31409,31427,31409,31432,31322,,,,,,,,,,,,,
Gesture 2,13:35:21.197,31438,31386,31520,31415,31398,31433,31386,31363,31421,31403,31502,31421,31386,31392,31363,31444,31456,31467,31421,31409,31351,31462,31456,31369,31409,31421,31386,31386,31450,31467,31386,,,,,,,,,,,,,
Gesture 2,13:35:21.296,31398,31392,31479,31363,31374,31380,31421,31374,31450,31345,31433,31427,31380,31374,31374,31403,31386,31444,31368,31409,31479,31456,31456,31368,31433,31444,31398,31368,31404,31485,31380,,,,,,,,,,,,,
Gesture 2,13:35:21.396,31403,31386,31398,31444,31456,31334,31403,31415,31409,31339,31386,31398,31380,31374,31380,31456,31409,31345,31421,31403,31398,31392,31403,31456,31386,31374,31363,31380,31386,31421,31403,,,,,,,,,,,,,
Gesture 2,13:35:21.496,31415,31398,31392,31374,31415,31345,31386,31427,31438,31421,31427,31374,31368,31363,31369,31438,31421,31467,31351,31403,31363,31456,31369,31421,31403,31392,31368,31386,31421,31450,31427,,,,,,,,,,,,,
Gesture 2,13:35:21.596,31403,31392,31456,31421,31392,31398,31403,31357,31398,31322,31409,31409,31421,31450,31328,31421,31438,31380,31357,31432,31409,31456,31421,31345,31339,31403,31421,31421,31403,31432,31380,,,,,,,,,,,,,
Gesture 2,13:35:21.697,31415,31357,31444,31444,31450,31339,31415,31363,31427,31369,31415,31421,31380,31357,31398,31421,31427,31392,31427,31421,31374,31497,31363,31380,31409,31357,31368,31473,31502,31450,31369,,,,,,,,,,,,,
Gesture 2,13:35:21.796,31415,31369,31462,31403,31433,31380,31386,31444,31363,31363,31438,31403,31409,31368,31374,31456,31479,31363,31409,31403,31415,31467,31433,31398,31368,31363,31374,31444,31409,31485,31334,,,,,,,,,,,,,
Gesture 2,13:35:21.896,31427,31392,31432,31409,31473,31316,31392,31415,31415,31369,31456,31392,31444,31398,31386,31433,31374,31357,31380,31473,31444,31438,31409,31392,31467,31403,31305,31386,31357,31427,31369,,,,,,,,,,,,,
Gesture 2,13:35:21.996,31427,31392,31409,31398,31427,31421,31409,31456,31462,31351,31444,31409,31403,31467,31421,31456,31491,31357,31369,31415,31433,31415,31392,31374,31462,31334,31421,31450,31456,31456,31462,,,,,,,,,,,,,
Gesture 2,13:35:22.097,31415,31386,31462,31432,31421,31380,31363,31450,31438,31380,31450,31438,31433,31386,31403,31392,31438,31363,31398,31433,31380,31386,31403,31438,31404,31386,31368,31409,31415,31479,31392,,,,,,,,,,,,,
Gesture 2,13:35:22.196,31450,31444,31479,31444,31450,31310,31392,31450,31368,31415,31485,31403,31409,31368,31392,31450,31467,31415,31386,31485,31450,31485,31433,31444,31444,31444,31339,31444,31392,31467,31322,,,,,,,,,,,,,
Gesture 2,13:35:22.297,31409,31339,31456,31432,31380,31334,31328,31450,31427,31450,31479,31363,31380,31409,31299,31398,31485,31334,31334,31438,31450,31450,31450,31403,31398,31369,31403,31392,31438,31462,31392,,,,,,,,,,,,,
Gesture 2,13:35:22.397,31438,31369,31450,31415,31415,31368,31374,31421,31444,31363,31392,31368,31409,31374,31386,31584,31537,31508,31403,31386,31479,31444,31398,31427,31270,31363,31409,31427,31432,31450,31415,,,,,,,,,,,,,
Gesture 2,13:35:22.497,31351,31409,31403,31450,31369,31386,31334,31270,31374,31386,31427,31462,31444,31305,31357,31462,31444,31403,31386,31403,31479,31432,31444,31421,31258,31351,31339,31427,31444,31421,31380,,,,,,,,,,,,,
Gesture 2,13:35:22.514,31473,31363,31502,31450,31403,31462,31380,31403,31374,31392,31473,31450,31491,31415,31351,31473,31415,31368,31415,31427,31398,31421,31427,31456,31363,31386,31374,31450,31520,31409,31351,,,,,,,,,,,,,
Gesture 2,13:35:22.696,31409,31392,31450,31386,31380,31409,31467,31322,31409,31433,31444,31392,31398,31456,31392,31305,31299,31363,31345,31392,31438,31526,31432,31409,31403,31345,31380,31438,31427,31444,31398,,,,,,,,,,,,,
Gesture 2,13:35:22.796,31427,31322,31403,31450,31432,31432,31403,31398,31380,31363,31462,31485,31421,31322,31369,31281,31421,31392,31409,31491,31467,31421,31450,31409,31497,31403,31392,31432,31485,31433,31415,,,,,,,,,,,,,
Gesture 2,13:35:22.897,31398,31392,31403,31392,31363,31345,31334,31409,31380,31386,31368,31403,31392,31374,31380,31200,31345,31380,31432,31351,31456,31427,31368,31345,31316,31438,31339,31409,31363,31450,31369,,,,,,,,,,,,,
Gesture 2,13:35:22.997,31322,31409,31462,31398,31415,31427,31456,31305,31409,31380,31392,31398,31450,31374,31433,31462,31456,31502,31462,31479,31438,31409,31392,31374,31235,31421,31398,31462,31438,31421,31345,,,,,,,,,,,,,
Gesture 2,13:35:23.096,31357,31398,31415,31427,31345,31403,31374,31252,31305,31380,31467,31438,31409,31363,31351,31398,31497,31340,31427,31462,31467,31444,31386,31316,31374,31334,31415,31427,31502,31392,31415,,,,,,,,,,,,,
Gesture 2,13:35:23.196,31328,31374,31433,31433,31380,31380,31444,31433,31380,31433,31421,31415,31374,31299,31508,31421,31427,31427,31374,31403,31409,31444,31444,31322,31526,31421,31363,31479,31433,31456,31369,,,,,,,,,,,,,
Gesture 2,13:35:23.297,31386,31403,31491,31409,31403,31409,31386,31183,31287,31386,31427,31415,31392,31421,31380,31369,31322,31363,31456,31427,31339,31450,31345,31386,31340,31409,31357,31409,31473,31497,31339,,,,,,,,,,,,,
Gesture 2,13:35:23.397,31398,31386,31432,31380,31444,31398,31444,31433,31345,31363,31444,31520,31444,31386,31467,31305,31276,31456,31363,31450,31438,31462,31403,31392,31526,31403,31392,31415,31485,31427,31398,,,,,,,,,,,,,
Gesture 2,13:35:23.496,31398,31444,31392,31432,31386,31380,31386,31235,31328,31409,31497,31438,31427,31398,31403,31514,31433,31392,31368,31462,31403,31438,31357,31363,31282,31409,31409,31386,31421,31520,31462,,,,,,,,,,,,,
Gesture 2,13:35:23.514,31316,31421,31433,31421,31497,31427,31398,31241,31316,31363,31432,31351,31450,31432,31432,31462,31532,31473,31392,31433,31473,31427,31339,31299,31386,31392,31485,31438,31363,31363,31537,,,,,,,,,,,,,
Gesture 2,13:35:23.697,31351,31409,31386,31374,31409,31398,31369,31514,31398,31473,31392,31438,31432,31369,31322,31311,31270,31351,31386,31392,31380,31462,31363,31392,31479,31374,31386,31398,31462,31398,31450,,,,,,,,,,,,,
Gesture 2,13:35:23.711,31206,31386,31374,31508,31415,31339,31403,31380,31299,31380,31427,31415,31491,31415,31421,31282,31398,31450,31374,31427,31433,31473,31433,31339,31252,31386,31415,31374,31450,31392,31374,,,,,,,,,,,,,
Gesture 2,13:35:23.895,31357,31444,31386,31567,31438,31374,31409,31258,31398,31415,31450,31433,31386,31427,31403,31316,31340,31369,31368,31392,31409,31456,31421,31392,31369,31386,31357,31432,31491,31497,31485,,,,,,,,,,,,,
Gesture 2,13:35:23.911,31363,31444,31374,31456,31444,31345,31386,31287,31357,31409,31438,31421,31409,31380,31427,31310,31421,31421,31427,31497,31357,31403,31345,31380,31421,31467,31415,31427,31438,31398,31473,,,,,,,,,,,,,
Gesture 2,13:35:24.095,31363,31479,31467,31532,31386,31409,31334,31403,31409,31392,31421,31438,31433,31409,31374,31508,31450,31421,31438,31427,31479,31462,31398,31392,31276,31363,31456,31409,31409,31526,31473,,,,,,,,,,,,,
Gesture 2,13:35:24.196,31368,31398,31502,31479,31444,31374,31374,31252,31409,31398,31491,31392,31462,31438,31345,31398,31305,31398,31403,31485,31369,31491,31345,31363,31386,31351,31403,31392,31473,31456,31456,,,,,,,,,,,,,
Gesture 2,13:35:24.295,31322,31415,31421,31432,31409,31415,31392,31363,31351,31444,31520,31467,31421,31369,31450,31403,31374,31427,31380,31369,31462,31514,31467,31351,31253,31409,31398,31415,31438,31497,31421,,,,,,,,,,,,,
Gesture 2,13:35:24.311,31357,31345,31491,31444,31444,31368,31392,31409,31281,31450,31479,31386,31415,31363,31421,31438,31380,31374,31322,31415,31351,31438,31392,31409,31311,31403,31316,31479,31415,31438,31444,,,,,,,,,,,,,
Gesture 2,13:35:24.495,31450,31433,31462,31456,31421,31432,31438,31456,31444,31444,31467,31392,31479,31386,31398,31381,31253,31421,31398,31380,31473,31467,31450,31403,31444,31415,31351,31415,31392,31526,31432,,,,,,,,,,,,,
Gesture 2,13:35:24.595,31392,31398,31392,31462,31520,31368,31415,31398,31392,31427,31456,31409,31438,31421,31433,31316,31299,31403,31427,31450,31467,31491,31380,31409,31479,31421,31438,31479,31380,31520,31479,,,,,,,,,,,,,
Gesture 2,13:35:24.695,31409,31403,31444,31368,31392,31328,31433,31392,31421,31421,31467,31450,31438,31374,31374,31497,31415,31345,31409,31421,31444,31456,31392,31473,31241,31438,31357,31432,31421,31485,31473,,,,,,,,,,,,,
Gesture 2,13:35:24.795,31363,31357,31462,31345,31392,31334,31421,31351,31403,31275,31485,31386,31421,31403,31357,31467,31467,31444,31398,31432,31374,31450,31363,31415,31235,31339,31334,31386,31432,31421,31328,,,,,,,,,,,,,
Gesture 2,13:35:24.895,31415,31432,31520,31438,31456,31403,31456,31311,31433,31421,31450,31386,31432,31403,31415,31479,31479,31415,31334,31403,31415,31467,31467,31450,31264,31392,31357,31415,31427,31462,31345,,,,,,,,,,,,,
Gesture 2,13:35:24.996,31380,31293,31398,31427,31444,31357,31427,31380,31438,31339,31438,31392,31450,31351,31403,31497,31450,31363,31427,31467,31421,31438,31409,31409,31415,31415,31380,31427,31479,31421,31310,,,,,,,,,,,,,
Gesture 2,13:35:25.095,31421,31403,31537,31409,31456,31386,31398,31444,31398,31427,31514,31409,31467,31456,31433,31415,31380,31398,31456,31462,31479,31491,31421,31398,31334,31392,31287,31444,31450,31520,31380,,,,,,,,,,,,,
Gesture 2,13:35:25.111,31415,31322,31438,31357,31467,31456,31421,31311,31479,31386,31433,31374,31409,31403,31392,31456,31386,31415,31438,31456,31421,31479,31374,31398,31386,31444,31432,31415,31293,31427,31374,,,,,,,,,,,,,
Gesture 2,13:35:25.295,31392,31369,31520,31380,31415,31322,31363,31485,31462,31398,31491,31392,31421,31339,31380,31334,31287,31386,31322,31392,31497,31479,31473,31421,31497,31398,31403,31444,31392,31543,31403,,,,,,,,,,,,,
Gesture 2,13:35:25.396,31409,31369,31491,31339,31456,31392,31409,31415,31398,31310,31427,31415,31508,31409,31450,31386,31287,31438,31415,31462,31386,31444,31467,31438,31508,31398,31415,31427,31374,31485,31409,,,,,,,,,,,,,
Gesture 2,13:35:25.496,31398,31409,31526,31409,31409,31421,31427,31346,31386,31409,31514,31462,31468,31398,31409,31497,31380,31456,31368,31438,31421,31479,31450,31409,31317,31473,31322,31450,31427,31526,31363,,,,,,,,,,,,,
Gesture 2,13:35:25.513,31444,31357,31415,31374,31479,31386,31374,31374,31386,31380,31473,31368,31432,31403,31438,31293,31310,31392,31438,31368,31398,31485,31415,31380,31328,31392,31432,31456,31368,31433,31409,,,,,,,,,,,,,
Gesture 2,13:35:25.695,31380,31357,31467,31444,31415,31386,31415,31340,31357,31403,31409,31473,31450,31392,31409,31415,31369,31421,31462,31415,31438,31421,31456,31438,31467,31386,31403,31392,31409,31497,31374,,,,,,,,,,,,,
Gesture 2,13:35:25.795,31392,31357,31392,31374,31351,31380,31438,31427,31345,31369,31456,31403,31444,31386,31368,31270,31374,31432,31432,31386,31380,31427,31339,31316,31374,31421,31421,31450,31334,31444,31351,,,,,,,,,,,,,
Gesture 2,13:35:25.895,31339,31427,31462,31415,31444,31374,31386,31334,31334,31374,31403,31392,31433,31421,31409,31351,31316,31421,31427,31421,31485,31497,31398,31369,31415,31398,31409,31403,31427,31409,31322,,,,,,,,,,,,,
Gesture 2,13:35:25.996,31432,31398,31444,31409,31386,31409,31438,31363,31398,31386,31409,31363,31415,31427,31368,31316,31369,31403,31380,31398,31433,31444,31427,31380,31334,31374,31421,31438,31368,31427,31415,,,,,,,,,,,,,
Gesture 2,13:35:26.096,31380,31351,31421,31450,31368,31456,31409,31433,31386,31415,31444,31403,31432,31380,31415,31421,31351,31368,31392,31438,31398,31444,31444,31427,31409,31398,31427,31467,31421,31456,31403,,,,,,,,,,,,,
Gesture 2,13:35:26.195,31357,31409,31374,31432,31403,31427,31351,31409,31409,31392,31456,31374,31415,31427,31351,31345,31421,31421,31432,31421,31462,31380,31473,31357,31409,31328,31409,31368,31357,31427,31345,,,,,,,,,,,,,
Gesture 2,13:35:26.295,31392,31334,31392,31392,31415,31398,31374,31305,31328,31339,31363,31369,31427,31368,31479,31491,31369,31421,31427,31415,31456,31398,31438,31334,31253,31380,31409,31409,31316,31438,31392,,,,,,,,,,,,,
Gesture 2,13:35:26.396,31380,31398,31438,31386,31427,31462,31456,31404,31374,31368,31403,31334,31433,31369,31380,31374,31305,31403,31473,31444,31392,31421,31374,31322,31398,31403,31403,31398,31450,31421,31415,,,,,,,,,,,,,
Gesture 2,13:35:26.496,31328,31392,31363,31427,31386,31403,31456,31438,31380,31351,31386,31473,31368,31398,31345,31421,31247,31398,31392,31438,31456,31421,31374,31339,31543,31392,31403,31357,31421,31368,31415,,,,,,,,,,,,,
Gesture 2,13:35:26.595,31334,31421,31386,31427,31403,31403,31415,31514,31345,31421,31421,31403,31392,31450,31427,31206,31398,31403,31409,31409,31467,31438,31345,31392,31403,31421,31345,31438,31438,31444,31432,,,,,,,,,,,,,
Gesture 2,13:35:26.611,31374,31363,31415,31368,31380,31328,31392,31311,31334,31421,31438,31427,31363,31374,31398,31322,31258,31374,31334,31339,31368,31368,31409,31334,31369,31374,31334,31398,31415,31444,31403,,,,,,,,,,,,,
Gesture 2,13:35:26.710,31432,31374,31438,31368,31392,31409,31368,31467,31415,31287,31415,31345,31456,31322,31409,31212,31334,31351,31421,31392,31357,31450,31398,31334,31438,31374,31380,31351,31386,31444,31369,,,,,,,,,,,,,
Gesture 2,13:35:26.896,31368,31339,31415,31427,31392,31339,31444,31462,31403,31310,31467,31433,31398,31386,31369,31195,31357,31386,31316,31363,31380,31421,31363,31409,31345,31351,31392,31403,31427,31438,31357,,,,,,,,,,,,,
Gesture 2,13:35:26.996,31456,31392,31380,31398,31450,31427,31403,31491,31456,31357,31473,31462,31450,31368,31403,31305,31345,31415,31398,31432,31421,31467,31380,31433,31398,31415,31421,31415,31415,31485,31456,,,,,,,,,,,,,
Gesture 2,13:35:27.095,31398,31409,31380,31357,31427,31398,31380,31502,31421,31398,31398,31444,31392,31398,31328,31258,31264,31386,31380,31380,31444,31421,31398,31386,31479,31357,31374,31392,31467,31368,31368,,,,,,,,,,,,,
Gesture 2,13:35:27.109,31450,31380,31438,31421,31392,31351,31409,31398,31386,31444,31369,31374,31386,31438,31374,31403,31497,31386,31392,31415,31415,31433,31462,31427,31276,31450,31409,31456,31398,31462,31450,,,,,,,,,,,,,
Gesture 2,13:35:27.295,31444,31368,31392,31421,31392,31433,31450,31299,31467,31398,31456,31415,31398,31432,31421,31450,31438,31409,31427,31432,31438,31403,31368,31432,31288,31462,31386,31374,31351,31409,31374,,,,,,,,,,,,,
Gesture 2,13:35:27.396,31450,31374,31345,31444,31438,31392,31409,31409,31433,31403,31374,31427,31462,31467,31421,31549,31438,31433,31433,31444,31450,31415,31369,31497,31270,31357,31409,31473,31438,31398,31398,,,,,,,,,,,,,
Gesture 2,13:35:27.496,31421,31415,31432,31357,31392,31450,31497,31398,31467,31369,31438,31357,31409,31392,31421,31398,31555,31403,31357,31438,31467,31462,31380,31427,31415,31421,31345,31380,31386,31467,31380,,,,,,,,,,,,,
Gesture 2,13:35:27.596,31432,31433,31456,31398,31432,31363,31369,31368,31415,31415,31438,31368,31467,31415,31409,31398,31421,31415,31462,31403,31398,31415,31403,31444,31415,31450,31398,31386,31380,31415,31380,,,,,,,,,,,,,
Gesture 2,13:35:27.695,31444,31363,31351,31421,31357,31380,31456,31409,31415,31409,31403,31380,31398,31386,31403,31462,31456,31415,31345,31345,31380,31444,31368,31357,31380,31334,31363,31392,31357,31438,31403,,,,,,,,,,,,,
Gesture 2,13:35:27.796,31427,31404,31438,31368,31444,31392,31398,31462,31392,31316,31456,31374,31432,31421,31380,31444,31403,31456,31415,31386,31456,31479,31409,31427,31386,31415,31398,31485,31415,31456,31427,,,,,,,,,,,,,
Gesture 2,13:35:27.896,31392,31415,31357,31386,31345,31403,31392,31403,31368,31398,31497,31473,31357,31363,31403,31386,31450,31421,31415,31438,31467,31438,31368,31403,31392,31380,31415,31351,31421,31421,31421,,,,,,,,,,,,,
Gesture 2,13:35:27.996,31421,31409,31409,31386,31479,31345,31450,31432,31398,31403,31386,31403,31450,31368,31386,31444,31438,31444,31334,31467,31386,31351,31398,31392,31491,31345,31392,31427,31398,31415,31473,,,,,,,,,,,,,
Gesture 2,13:35:28.095,31427,31421,31386,31374,31433,31345,31299,31444,31421,31368,31409,31339,31421,31403,31310,31473,31392,31287,31374,31415,31386,31380,31403,31427,31432,31345,31368,31357,31305,31392,31415,,,,,,,,,,,,,
Gesture 2,13:35:28.195,31398,31328,31403,31345,31386,31415,31380,31409,31403,31328,31421,31334,31415,31409,31368,31363,31392,31432,31403,31479,31368,31403,31368,31433,31450,31363,31427,31386,31392,31438,31316,,,,,,,,,,,,,
Gesture 2,13:35:28.295,31374,31386,31450,31427,31380,31403,31386,31415,31374,31398,31433,31421,31421,31380,31328,31433,31403,31403,31368,31456,31368,31438,31421,31409,31462,31345,31450,31491,31421,31467,31403,,,,,,,,,,,,,
Gesture 2,13:35:28.395,31369,31374,31421,31357,31485,31421,31421,31374,31374,31328,31392,31305,31444,31398,31380,31363,31363,31316,31415,31450,31398,31374,31438,31380,31427,31380,31467,31398,31322,31444,31363,,,,,,,,,,,,,
Gesture 2,13:35:28.496,31427,31415,31421,31363,31368,31357,31351,31409,31392,31374,31456,31328,31363,31351,31369,31334,31392,31345,31357,31357,31427,31462,31415,31409,31415,31334,31380,31415,31339,31444,31339,,,,,,,,,,,,,
Gesture 2,13:35:28.595,31357,31374,31369,31374,31415,31409,31409,31322,31351,31398,31444,31293,31421,31398,31357,31409,31415,31374,31398,31398,31351,31398,31357,31357,31409,31386,31415,31450,31334,31398,31403,,,,,,,,,,,,,
Gesture 2,13:35:28.696,31438,31497,31369,31403,31398,31398,31316,31374,31409,31421,31497,31403,31386,31357,31386,31438,31409,31316,31339,31415,31427,31456,31421,31398,31415,31363,31386,31421,31357,31467,31310,,,,,,,,,,,,,
Gesture 2,13:35:28.795,31363,31398,31403,31287,31462,31357,31322,31415,31368,31369,31392,31305,31438,31392,31299,31374,31345,31351,31363,31467,31322,31421,31421,31403,31427,31345,31398,31438,31328,31380,31345,,,,,,,,,,,,,
Gesture 2,13:35:28.895,31427,31514,31380,31456,31450,31421,31363,31421,31374,31456,31473,31438,31427,31398,31357,31433,31345,31421,31380,31438,31374,31438,31450,31380,31380,31363,31392,31421,31433,31398,31497,,,,,,,,,,,,,
Gesture 2,13:35:28.908,31386,31427,31415,31374,31368,31380,31398,31363,31345,31392,31398,31339,31427,31351,31334,31339,31328,31368,31415,31444,31392,31462,31403,31374,31363,31351,31444,31386,31421,31450,31374,,,,,,,,,,,,,
Gesture 2,13:35:29.096,31415,31479,31386,31230,31403,31380,31374,31404,31415,31403,31392,31334,31438,31374,31363,31421,31433,31409,31432,31456,31409,31427,31462,31403,31386,31386,31467,31473,31357,31415,31398,,,,,,,,,,,,,
Gesture 2,13:35:29.196,31363,31339,31415,31264,31450,31450,31328,31363,31363,31462,31357,31392,31438,31368,31374,31351,31357,31374,31409,31415,31363,31438,31462,31380,31345,31339,31479,31456,31183,31409,31386,,,,,,,,,,,,,
Gesture 2,13:35:29.295,31334,31334,31328,31374,31427,31386,31502,31462,31357,31433,31305,31467,31339,31363,31432,31444,31456,31392,31450,31345,31398,31322,31235,31357,31403,31467,31380,31398,31357,31229,31281,,,,,,,,,,,,,
Gesture 2,13:35:29.396,31386,31438,31328,31229,31432,31409,31345,31421,31450,31427,31415,31258,31444,31415,31374,31398,31398,31305,31444,31415,31264,31433,31392,31403,31369,31345,31386,31450,31316,31415,31427,,,,,,,,,,,,,
Gesture 2,13:35:29.409,31438,31467,31444,31427,31450,31427,31316,31433,31380,31368,31508,31386,31421,31444,31339,31404,31433,31415,31450,31392,31398,31438,31456,31392,31427,31368,31427,31432,31247,31427,31415,,,,,,,,,,,,,
Gesture 2,13:35:29.595,31403,31409,31427,31137,31427,31386,31421,31398,31357,31386,31386,31299,31368,31368,31392,31369,31380,31363,31427,31415,31392,31432,31368,31398,31433,31322,31380,31392,31183,31415,31363,,,,,,,,,,,,,
Gesture 2,13:35:29.695,31386,31386,31473,31177,31427,31351,31380,31363,31438,31415,31374,31363,31392,31374,31351,31409,31468,31398,31398,31438,31427,31433,31497,31479,31403,31357,31438,31467,31125,31520,31345,,,,,,,,,,,,,
Gesture 2,13:35:29.796,31392,31392,31293,31299,31386,31351,31310,31374,31450,31392,31473,31287,31433,31363,31305,31386,31357,31357,31398,31415,31398,31433,31398,31380,31334,31392,31380,31409,31398,31386,31357,,,,,,,,,,,,,
Gesture 2,13:35:29.896,31380,31432,31398,31241,31392,31398,31438,31334,31444,31444,31485,31450,31403,31345,31363,31433,31398,31392,31433,31427,31328,31444,31427,31427,31374,31409,31386,31462,31241,31456,31409,,,,,,,,,,,,,
Gesture 2,13:35:29.995,31380,31363,31351,31218,31438,31305,31357,31403,31432,31363,31386,31334,31363,31351,31345,31398,31363,31368,31281,31415,31363,31392,31392,31368,31386,31357,31392,31456,31142,31374,31369,,,,,,,,,,,,,
Gesture 3,13:35:30.096,31438,31438,31415,31421,31497,31386,31392,31421,31415,31398,31450,31276,31456,31415,31450,31427,31403,31374,31374,31403,31200,31415,31462,31409,31392,31432,31351,31444,31421,31403,31473,,,,,,,,,,,,,
Gesture 3,13:35:30.196,31462,31415,31421,31166,31409,31398,31368,31363,31357,31403,31432,31380,31427,31398,31351,31299,31374,31328,31403,31485,31392,31398,31386,31479,31316,31363,31403,31450,31281,31386,31380,,,,,,,,,,,,,
Gesture 3,13:35:30.295,31363,31438,31432,31264,31438,31415,31392,31386,31432,31398,31409,31351,31444,31450,31299,31409,31403,31380,31398,31520,31293,31427,31438,31415,31433,31380,31409,31433,31311,31532,31438,,,,,,,,,,,,,
Gesture 3,13:35:30.396,31386,31403,31357,31339,31432,31427,31392,31363,31427,31450,31421,31392,31438,31432,31386,31409,31403,31386,31415,31421,31351,31433,31427,31398,31380,31409,31450,31456,31264,31398,31467,,,,,,,,,,,,,
Gesture 3,13:35:30.495,31444,31456,31415,31299,31438,31421,31386,31468,31392,31427,31427,31357,31421,31409,31386,31415,31468,31374,31467,31479,31421,31450,31403,31409,31398,31392,31409,31438,31357,31409,31450,,,,,,,,,,,,,
Gesture 3,13:35:30.595,31450,31450,31438,31137,31508,31444,31403,31421,31421,31392,31438,31403,31421,31438,31427,31363,31386,31351,31398,31502,31403,31368,31479,31438,31351,31368,31398,31433,31177,31473,31398,,,,,,,,,,,,,
Gesture 3,13:35:30.696,31380,31421,31380,31433,31508,31403,31345,31403,31403,31392,31479,31206,31374,31392,31438,31398,31450,31386,31450,31432,31241,31456,31473,31403,31403,31310,31432,31421,31433,31398,31444,,,,,,,,,,,,,
Gesture 3,13:35:30.796,31398,31368,31421,31276,31409,31392,31351,31363,31450,31374,31421,31369,31427,31444,31310,31351,31345,31281,31380,31450,31293,31398,31444,31450,31398,31403,31398,31421,31264,31473,31467,,,,,,,,,,,,,
Gesture 3,13:35:30.896,31403,31339,31491,31415,31456,31380,31363,31409,31351,31363,31444,31189,31479,31409,31427,31380,31450,31398,31403,31432,31148,31403,31427,31357,31363,31392,31433,31432,31497,31433,31369,,,,,,,,,,,,,
Gesture 3,13:35:30.995,31433,31456,31351,31270,31368,31427,31357,31433,31438,31438,31415,31328,31438,31392,31339,31357,31374,31357,31328,31462,31246,31380,31415,31415,31415,31281,31427,31398,31299,31427,31450,,,,,,,,,,,,,
Gesture 3,13:35:31.096,31415,31438,31386,31392,31427,31438,31322,31369,31392,31369,31398,31200,31485,31444,31299,31374,31375,31305,31450,31421,31189,31421,31456,31409,31427,31369,31433,31450,31345,31432,31450,,,,,,,,,,,,,
Gesture 3,13:35:31.195,31398,31438,31415,31409,31444,31392,31287,31345,31409,31363,31462,31386,31485,31427,31299,31357,31357,31357,31450,31403,31212,31543,31450,31403,31403,31293,31444,31392,31479,31386,31403,,,,,,,,,,,,,
Gesture 3,13:35:31.295,31415,31363,31432,31154,31392,31433,31322,31392,31427,31351,31438,31316,31398,31368,31305,31438,31380,31386,31403,31444,31299,31374,31450,31427,31380,31310,31433,31415,31125,31421,31392,,,,,,,,,,,,,
Gesture 3,13:35:31.396,31415,31392,31421,31374,31473,31427,31334,31438,31363,31409,31485,31328,31462,31432,31334,31427,31380,31386,31415,31398,31339,31473,31380,31409,31427,31334,31421,31462,31357,31427,31374,,,,,,,,,,,,,
Gesture 3,13:35:31.496,31403,31421,31421,31392,31450,31450,31374,31380,31392,31380,31456,31235,31433,31433,31340,31398,31386,31351,31415,31427,31334,31398,31403,31421,31398,31392,31386,31450,31241,31415,31392,,,,,,,,,,,,,
Gesture 3,13:35:31.596,31409,31421,31450,31351,31421,31456,31345,31398,31415,31409,31427,31311,31456,31438,31368,31345,31433,31357,31403,31398,31223,31403,31456,31427,31415,31368,31450,31450,31270,31479,31374,,,,,,,,,,,,,
Gesture 3,13:35:31.696,31403,31433,31403,31264,31456,31421,31345,31351,31409,31497,31427,31520,31403,31450,31421,31398,31380,31322,31403,31369,31479,31497,31450,31438,31380,31363,31444,31421,31165,31462,31444,,,,,,,,,,,,,
Gesture 3,13:35:31.795,31392,31403,31433,31282,31403,31467,31386,31374,31369,31392,31444,31287,31467,31473,31351,31421,31409,31392,31415,31485,31427,31520,31462,31462,31415,31334,31392,31403,31154,31403,31450,,,,,,,,,,,,,
Gesture 3,13:35:31.896,31415,31363,31456,31264,31398,31456,31392,31444,31409,31392,31433,31299,31467,31433,31392,31473,31450,31433,31467,31444,31374,31467,31427,31444,31339,31473,31467,31467,31154,31368,31386,,,,,,,,,,,,,
Gesture 3,13:35:31.995,31438,31322,31450,31299,31473,31444,31386,31386,31415,31409,31438,31264,31415,31345,31386,31380,31415,31398,31368,31444,31195,31432,31444,31409,31421,31339,31398,31467,31444,31491,31369,,,,,,,,,,,,,
Gesture 3,13:35:32.095,31415,31438,31438,31369,31409,31392,31345,31345,31456,31427,31444,31299,31339,31444,31409,31392,31398,31427,31485,31398,31235,31479,31462,31433,31427,31368,31520,31444,31409,31444,31369,,,,,,,,,,,,,
Gesture 3,13:35:32.195,31403,31380,31357,31450,31421,31392,31322,31403,31409,31462,31432,31235,31415,31403,31316,31398,31380,31368,31392,31421,31258,31415,31403,31403,31363,31403,31351,31427,31427,31421,31357,,,,,,,,,,,,,
Gesture 3,13:35:32.209,31485,31427,31473,31374,31415,31421,31392,31380,31403,31316,31369,31171,31450,31404,31386,31392,31444,31363,31409,31374,31235,31392,31415,31444,31409,31403,31386,31421,31374,31438,31334,,,,,,,,,,,,,
Gesture 3,13:35:32.396,31357,31438,31473,31200,31444,31374,31432,31415,31432,31392,31392,31380,31473,31473,31392,31386,31386,31386,31473,31491,31368,31462,31421,31450,31415,31421,31432,31462,31154,31491,31380,,,,,,,,,,,,,
Gesture 3,13:35:32.496,31374,31386,31363,31189,31386,31438,31398,31351,31427,31270,31432,31369,31421,31415,31398,31392,31444,31415,31491,31421,31450,31456,31415,31392,31398,31427,31415,31403,31230,31415,31339,,,,,,,,,,,,,
Gesture 3,13:35:32.595,31398,31363,31491,31374,31508,31462,31403,31450,31433,31357,31473,31177,31409,31438,31415,31427,31392,31415,31398,31444,31374,31450,31473,31421,31380,31415,31532,31386,31328,31438,31345,,,,,,,,,,,,,
Gesture 3,13:35:32.696,31438,31357,31462,31270,31450,31403,31380,31357,31398,31316,31398,31310,31473,31409,31305,31398,31403,31421,31462,31456,31409,31403,31374,31380,31433,31339,31398,31427,31154,31450,31334,,,,,,,,,,,,,
Gesture 3,13:35:32.795,31479,31374,31432,31200,31450,31409,31415,31374,31433,31357,31369,31299,31502,31392,31403,31450,31398,31450,31444,31491,31421,31427,31450,31468,31380,31392,31502,31432,31189,31462,31363,,,,,,,,,,,,,
Gesture 3,13:35:32.896,31392,31409,31427,31351,31450,31368,31334,31380,31392,31462,31415,31241,31450,31438,31386,31374,31299,31438,31386,31502,31305,31386,31398,31456,31369,31403,31398,31450,31247,31427,31293,,,,,,,,,,,,,
Gesture 3,13:35:32.996,31456,31339,31421,31438,31450,31456,31386,31427,31392,31357,31403,31206,31514,31368,31386,31409,31369,31374,31415,31479,31311,31427,31415,31357,31398,31357,31497,31491,31473,31409,31380,,,,,,,,,,,,,
Gesture 3,13:35:33.014,31438,31438,31450,31339,31456,31409,31369,31415,31485,31432,31502,31427,31508,31444,31357,31421,31368,31380,31502,31497,31363,31485,31444,31467,31386,31374,31432,31438,31183,31444,31380,,,,,,,,,,,,,
Gesture 3,13:35:33.195,31398,31357,31421,31415,31491,31473,31339,31380,31427,31334,31427,31380,31491,31462,31473,31374,31415,31432,31462,31456,31357,31467,31380,31415,31374,31357,31369,31462,31345,31456,31316,,,,,,,,,,,,,
Gesture 3,13:35:33.296,31380,31444,31462,31363,31386,31421,31450,31409,31403,31432,31444,31345,31444,31444,31392,31398,31409,31357,31438,31467,31433,31427,31403,31432,31392,31334,31421,31479,31334,31462,31491,,,,,,,,,,,,,
Gesture 3,13:35:33.395,31374,31468,31403,31351,31438,31363,31316,31374,31409,31339,31392,31334,31473,31403,31403,31357,31334,31363,31380,31514,31374,31415,31421,31415,31374,31427,31427,31438,31374,31398,31305,,,,,,,,,,,,,
Gesture 3,13:35:33.410,31432,31421,31456,31334,31456,31380,31374,31409,31444,31357,31514,31363,31438,31409,31328,31334,31433,31374,31427,31491,31438,31462,31421,31485,31450,31374,31368,31479,31403,31421,31415,,,,,,,,,,,,,
Gesture 3,13:35:33.515,31415,31392,31339,31403,31456,31386,31357,31369,31444,31345,31421,31299,31479,31398,31380,31392,31386,31339,31444,31462,31316,31409,31374,31421,31398,31368,31345,31485,31345,31421,31421,,,,,,,,,,,,,
Gesture 3,13:35:33.696,31409,31386,31415,31357,31444,31450,31398,31403,31415,31357,31438,31357,31473,31380,31380,31386,31369,31432,31374,31444,31456,31392,31415,31415,31386,31398,31357,31421,31363,31421,31351,,,,,,,,,,,,,
Gesture 3,13:35:33.796,31427,31328,31415,31351,31427,31403,31310,31334,31444,31334,31403,31363,31409,31473,31339,31339,31252,31334,31409,31491,31392,31450,31345,31409,31328,31351,31421,31473,31369,31398,31374,,,,,,,,,,,,,
Gesture 3,13:35:33.896,31374,31421,31380,31386,31415,31485,31421,31328,31415,31462,31351,31305,31450,31415,31409,31334,31328,31386,31433,31421,31334,31392,31386,31392,31368,31368,31421,31450,31287,31444,31403,,,,,,,,,,,,,
Gesture 3,13:35:33.995,31421,31438,31275,31357,31508,31403,31374,31368,31421,31421,31427,31398,31462,31415,31462,31374,31345,31473,31369,31386,31351,31450,31415,31421,31299,31427,31392,31479,31316,31368,31438,,,,,,,,,,,,,
Gesture 3,13:35:34.096,31427,31473,31264,31433,31508,31450,31386,31374,31287,31473,31305,31351,31473,31462,31363,31386,31322,31392,31467,31473,31421,31322,31444,31432,31339,31351,31432,31450,31398,31270,31444,,,,,,,,,,,,,
Gesture 3,13:35:34.196,31467,31403,31392,31339,31421,31421,31415,31305,31421,31363,31351,31310,31467,31438,31363,31374,31322,31368,31491,31485,31386,31392,31473,31380,31351,31351,31467,31450,31299,31403,31357,,,,,,,,,,,,,
Gesture 3,13:35:34.295,31409,31368,31287,31357,31462,31398,31363,31380,31462,31363,31281,31380,31462,31473,31363,31369,31392,31392,31421,31415,31403,31246,31444,31456,31345,31403,31438,31485,31339,31357,31357,,,,,,,,,,,,,
Gesture 3,13:35:34.396,31403,31398,31432,31322,31456,31351,31339,31322,31491,31374,31456,31369,31415,31421,31403,31357,31345,31328,31415,31415,31403,31345,31403,31491,31351,31392,31386,31380,31293,31403,31415,,,,,,,,,,,,,
Gesture 3,13:35:34.495,31485,31398,31386,31305,31432,31421,31392,31392,31432,31363,31363,31380,31444,31433,31415,31392,31427,31392,31479,31462,31415,31473,31398,31485,31322,31374,31456,31450,31339,31386,31409,,,,,,,,,,,,,
Gesture 3,13:35:34.596,31438,31374,31369,31334,31462,31386,31374,31351,31403,31427,31357,31299,31415,31392,31351,31380,31334,31380,31398,31450,31357,31398,31368,31398,31357,31339,31450,31450,31369,31415,31380,,,,,,,,,,,,,
Gesture 3,13:35:34.695,31462,31473,31415,31345,31450,31409,31421,31432,31491,31339,31281,31322,31479,31462,31345,31386,31339,31403,31427,31508,31363,31322,31427,31467,31374,31403,31421,31456,31345,31345,31403,,,,,,,,,,,,,
Gesture 3,13:35:34.795,31392,31398,31235,31339,31392,31415,31380,31357,31415,31392,31398,31299,31468,31368,31403,31334,31351,31368,31380,31380,31409,31247,31473,31415,31310,31351,31403,31479,31363,31235,31334,,,,,,,,,,,,,
Gesture 3,13:35:34.895,31438,31374,31287,31369,31427,31421,31415,31339,31485,31386,31368,31328,31444,31438,31392,31392,31398,31334,31485,31450,31380,31438,31456,31427,31351,31403,31427,31462,31351,31357,31398,,,,,,,,,,,,,
Gesture 3,13:35:34.996,31467,31427,31212,31432,31479,31398,31380,31363,31497,31392,31374,31398,31450,31392,31339,31403,31380,31380,31456,31473,31363,31357,31380,31433,31345,31403,31392,31456,31386,31218,31438,,,,,,,,,,,,,
Gesture 3,13:35:35.096,31438,31386,31339,31374,31497,31479,31403,31386,31374,31409,31427,31322,31508,31479,31438,31380,31398,31456,31491,31508,31438,31386,31398,31520,31374,31357,31444,31433,31351,31380,31345,,,,,,,,,,,,,
Gesture 3,13:35:35.195,31432,31398,31369,31421,31427,31392,31339,31374,31421,31380,31299,31386,31456,31427,31427,31305,31334,31368,31310,31415,31322,31398,31351,31386,31421,31345,31386,31438,31368,31252,31357,,,,,,,,,,,,,
Gesture 3,13:35:35.295,31386,31380,31380,31357,31532,31433,31438,31427,31392,31444,31351,31433,31433,31398,31438,31363,31386,31415,31415,31479,31456,31305,31398,31427,31316,31398,31444,31438,31339,31462,31433,,,,,,,,,,,,,
Gesture 3,13:35:35.395,31462,31398,31427,31351,31409,31415,31299,31392,31456,31392,31287,31305,31427,31398,31299,31334,31305,31339,31339,31432,31351,31241,31339,31456,31339,31310,31380,31403,31334,31403,31322,,,,,,,,,,,,,
Gesture 3,13:35:35.495,31467,31357,31217,31363,31421,31415,31415,31328,31520,31322,31479,31392,31473,31409,31386,31444,31444,31386,31409,31456,31427,31398,31450,31456,31398,31374,31433,31415,31334,31334,31380,,,,,,,,,,,,,
Gesture 3,13:35:35.595,31473,31398,31253,31363,31398,31421,31386,31386,31444,31433,31421,31310,31403,31380,31374,31392,31299,31351,31427,31415,31380,31450,31438,31520,31409,31357,31374,31409,31334,31398,31415,,,,,,,,,,,,,
Gesture 3,13:35:35.696,31398,31392,31241,31351,31415,31473,31380,31305,31392,31374,31467,31351,31450,31415,31415,31275,31409,31444,31502,31432,31339,31363,31427,31479,31357,31398,31415,31444,31357,31258,31403,,,,,,,,,,,,,
Gesture 3,13:35:35.709,31398,31438,31235,31386,31409,31398,31363,31357,31444,31398,31433,31351,31433,31374,31380,31345,31403,31368,31368,31392,31403,31444,31473,31380,31398,31403,31351,31345,31421,31369,31427,,,,,,,,,,,,,
Gesture 3,13:35:35.896,31421,31433,31212,31398,31427,31485,31398,31363,31508,31421,31403,31403,31450,31450,31409,31351,31363,31392,31497,31462,31339,31357,31357,31432,31351,31427,31427,31386,31363,31305,31485,,,,,,,,,,,,,
Gesture 3,13:35:35.995,31502,31392,31403,31345,31398,31403,31467,31403,31497,31438,31322,31340,31409,31403,31368,31339,31427,31386,31415,31427,31374,31491,31427,31450,31380,31374,31398,31415,31293,31305,31363,,,,,,,,,,,,,
Gesture 3,13:35:36.096,31322,31456,31380,31345,31409,31438,31386,31386,31357,31374,31415,31409,31473,31392,31380,31363,31438,31386,31380,31363,31374,31386,31392,31427,31374,31380,31438,31427,31438,31369,31316,,,,,,,,,,,,,
Gesture 3,13:35:36.196,31456,31432,31252,31374,31537,31456,31357,31363,31444,31450,31398,31345,31438,31421,31398,31339,31438,31444,31427,31398,31409,31403,31514,31479,31409,31345,31386,31444,31392,31380,31409,,,,,,,,,,,,,
Gesture 3,13:35:36.210,31438,31363,31415,31357,31345,31409,31398,31351,31433,31339,31241,31316,31380,31409,31380,31345,31368,31433,31398,31409,31380,31223,31427,31432,31351,31386,31403,31392,31328,31403,31305,,,,,,,,,,,,,
Gesture 3,13:35:36.396,31421,31433,31340,31374,31403,31444,31427,31363,31485,31398,31351,31334,31409,31398,31462,31339,31357,31351,31415,31386,31386,31485,31462,31473,31334,31456,31386,31409,31392,31264,31432,,,,,,,,,,,,,
Gesture 3,13:35:36.496,31479,31415,31380,31339,31368,31421,31392,31293,31432,31380,31392,31386,31432,31398,31438,31386,31380,31403,31415,31421,31374,31369,31456,31444,31357,31398,31403,31380,31339,31473,31363,,,,,,,,,,,,,
Gesture 3,13:35:36.595,31462,31427,31253,31305,31433,31351,31392,31357,31444,31374,31462,31339,31345,31368,31456,31369,31409,31456,31456,31432,31357,31438,31438,31502,31409,31421,31438,31427,31351,31212,31438,,,,,,,,,,,,,
Gesture 3,13:35:36.695,31398,31380,31398,31339,31409,31386,31369,31334,31403,31351,31421,31351,31386,31433,31369,31328,31299,31409,31380,31398,31357,31497,31328,31403,31334,31345,31363,31398,31275,31310,31305,,,,,,,,,,,,,
Gesture 3,13:35:36.796,31409,31392,31409,31433,31398,31398,31409,31351,31432,31421,31316,31386,31392,31386,31427,31305,31351,31450,31415,31409,31351,31247,31403,31450,31328,31409,31351,31386,31421,31427,31444,,,,,,,,,,,,,
Gesture 3,13:35:36.896,31386,31369,31357,31363,31456,31444,31421,31316,31444,31386,31514,31398,31508,31398,31374,31409,31357,31415,31427,31444,31403,31438,31392,31467,31363,31497,31473,31409,31421,31345,31409,,,,,,,,,,,,,
Gesture 3,13:35:36.911,31497,31374,31218,31398,31479,31380,31479,31316,31543,31403,31409,31415,31433,31409,31427,31392,31403,31386,31374,31462,31409,31403,31462,31415,31392,31433,31427,31409,31427,31282,31369,,,,,,,,,,,,,
Gesture 3,13:35:37.095,31415,31403,31502,31392,31438,31444,31415,31427,31427,31386,31310,31339,31305,31456,31409,31403,31415,31433,31502,31473,31409,31247,31421,31432,31403,31374,31386,31421,31374,31450,31427,,,,,,,,,,,,,
Gesture 3,13:35:37.196,31409,31421,31415,31363,31403,31456,31392,31438,31450,31374,31386,31363,31392,31368,31450,31415,31432,31433,31380,31467,31386,31305,31497,31502,31485,31403,31374,31421,31351,31514,31392,,,,,,,,,,,,,
Gesture 3,13:35:37.210,31415,31479,31339,31374,31497,31415,31433,31415,31398,31427,31270,31398,31392,31351,31392,31421,31368,31438,31421,31462,31427,31339,31433,31444,31415,31438,31392,31450,31374,31316,31392,,,,,,,,,,,,,
Gesture 3,13:35:37.396,31368,31398,31380,31374,31398,31392,31462,31386,31339,31374,31218,31334,31398,31421,31368,31403,31398,31409,31403,31345,31398,31299,31409,31497,31368,31409,31380,31374,31386,31392,31380,,,,,,,,,,,,,
Gesture 3,13:35:37.495,31409,31409,31374,31421,31415,31374,31427,31374,31409,31363,31310,31421,31392,31398,31427,31386,31438,31438,31392,31403,31497,31339,31398,31368,31368,31438,31485,31380,31409,31339,31421,,,,,,,,,,,,,
Gesture 3,13:35:37.595,31427,31438,31433,31357,31421,31403,31403,31398,31386,31421,31247,31340,31433,31403,31473,31392,31473,31368,31380,31392,31409,31241,31409,31398,31363,31363,31403,31421,31351,31485,31386,,,,,,,,,,,,,
Gesture 3,13:35:37.696,31386,31380,31502,31328,31421,31444,31386,31380,31369,31363,31258,31357,31392,31444,31386,31432,31363,31398,31403,31403,31334,31328,31398,31392,31386,31403,31403,31432,31345,31322,31328,,,,,,,,,,,,,
Gesture 3,13:35:37.709,31456,31398,31392,31345,31432,31421,31403,31421,31386,31409,31467,31351,31456,31368,31421,31438,31427,31403,31357,31409,31374,31322,31357,31392,31386,31438,31438,31427,31369,31369,31357,,,,,,,,,,,,,
Gesture 3,13:35:37.896,31392,31368,31351,31421,31421,31462,31415,31491,31293,31421,31334,31386,31450,31409,31386,31444,31421,31444,31462,31409,31392,31392,31427,31345,31473,31403,31363,31398,31392,31386,31380,,,,,,,,,,,,,
Gesture 3,13:35:37.996,31386,31386,31374,31392,31421,31421,31409,31403,31363,31357,31258,31398,31409,31421,31398,31398,31392,31403,31433,31374,31316,31363,31450,31450,31363,31380,31433,31398,31380,31340,31450,,,,,,,,,,,,,
Gesture 3,13:35:38.013,31450,31368,31241,31368,31398,31363,31398,31368,31310,31351,31421,31374,31403,31392,31438,31386,31380,31386,31374,31392,31462,31438,31456,31403,31398,31392,31392,31409,31351,31247,31386,,,,,,,,,,,,,
Gesture 3,13:35:38.196,31368,31415,31374,31316,31398,31409,31363,31339,31351,31380,31520,31316,31398,31368,31369,31345,31398,31462,31368,31421,31363,31421,31444,31363,31427,31398,31398,31467,31287,31235,31322,,,,,,,,,,,,,
Gesture 3,13:35:38.295,31386,31427,31374,31374,31374,31380,31485,31444,31409,31438,31264,31409,31432,31421,31427,31444,31398,31398,31374,31427,31386,31374,31392,31403,31392,31415,31392,31421,31421,31351,31456,,,,,,,,,,,,,
Gesture 3,13:35:38.395,31328,31363,31374,31334,31386,31409,31427,31427,31403,31438,31299,31369,31403,31386,31386,31363,31409,31403,31444,31403,31409,31363,31444,31380,31392,31421,31421,31438,31386,31310,31456,,,,,,,,,,,,,
Gesture 3,13:35:38.496,31380,31398,31444,31345,31473,31403,31392,31398,31351,31392,31247,31369,31421,31392,31421,31386,31380,31433,31392,31415,31380,31264,31421,31392,31363,31368,31432,31433,31398,31403,31398,,,,,,,,,,,,,
Gesture 3,13:35:38.596,31392,31409,31415,31438,31444,31363,31392,31386,31462,31415,31433,31374,31398,31421,31368,31386,31403,31398,31432,31404,31328,31369,31409,31421,31386,31363,31432,31363,31479,31282,31345,,,,,,,,,,,,,
Gesture 3,13:35:38.696,31403,31403,31386,31363,31380,31427,31427,31403,31380,31299,31241,31421,31467,31403,31432,31427,31444,31421,31456,31444,31368,31322,31444,31438,31409,31403,31491,31409,31444,31444,31392,,,,,,,,,,,,,
Gesture 3,13:35:38.795,31386,31392,31520,31345,31398,31485,31444,31351,31316,31438,31247,31340,31421,31433,31444,31398,31380,31374,31421,31456,31392,31311,31450,31433,31374,31380,31438,31479,31345,31386,31473,,,,,,,,,,,,,
Gesture 3,13:35:38.896,31322,31403,31398,31310,31368,31415,31398,31386,31386,31386,31287,31345,31345,31415,31409,31415,31345,31415,31392,31398,31374,31403,31438,31444,31380,31398,31386,31322,31299,31374,31328,,,,,,,,,,,,,
Gesture 3,13:35:38.996,31374,31374,31491,31369,31374,31421,31427,31374,31357,31351,31270,31334,31456,31462,31345,31444,31403,31345,31380,31415,31369,31398,31392,31450,31392,31444,31403,31421,31334,31398,31351,,,,,,,,,,,,,
Gesture 3,13:35:39.095,31450,31421,31456,31386,31392,31462,31421,31403,31339,31374,31508,31380,31438,31403,31450,31409,31415,31427,31479,31438,31467,31368,31374,31403,31444,31450,31456,31432,31345,31287,31392,,,,,,,,,,,,,
Gesture 3,13:35:39.196,31299,31368,31374,31345,31415,31427,31386,31392,31444,31415,31415,31339,31392,31467,31409,31357,31339,31421,31444,31392,31409,31450,31421,31368,31369,31380,31398,31427,31415,31421,31415,,,,,,,,,,,,,
Gesture 3,13:35:39.295,31473,31363,31415,31421,31432,31450,31409,31444,31369,31339,31339,31427,31450,31427,31403,31392,31374,31415,31450,31444,31421,31409,31497,31421,31438,31421,31467,31403,31479,31421,31433,,,,,,,,,,,,,
Gesture 3,13:35:39.396,31409,31392,31386,31345,31409,31403,31316,31334,31427,31334,31392,31328,31409,31386,31392,31415,31380,31363,31392,31432,31345,31357,31398,31374,31456,31363,31392,31368,31444,31438,31339,,,,,,,,,,,,,
Gesture 3,13:35:39.496,31386,31415,31392,31374,31432,31444,31392,31368,31368,31421,31363,31363,31427,31444,31421,31351,31368,31392,31450,31432,31398,31467,31427,31398,31380,31421,31432,31456,31287,31380,31444,,,,,,,,,,,,,
Gesture 3,13:35:39.596,31392,31374,31368,31322,31363,31369,31374,31363,31351,31334,31409,31339,31427,31409,31363,31351,31293,31415,31409,31368,31409,31444,31409,31392,31374,31467,31403,31368,31310,31438,31357,,,,,,,,,,,,,
Gesture 3,13:35:39.696,31339,31421,31374,31369,31456,31467,31351,31491,31339,31357,31462,31369,31438,31456,31386,31432,31421,31386,31427,31467,31432,31427,31432,31438,31409,31403,31438,31403,31287,31398,31392,,,,,,,,,,,,,
Gesture 3,13:35:39.796,31351,31328,31403,31374,31374,31415,31357,31392,31339,31316,31398,31363,31363,31368,31398,31386,31380,31339,31438,31351,31374,31415,31450,31369,31386,31444,31409,31305,31287,31421,31409,,,,,,,,,,,,,
Gesture 3,13:35:39.895,31357,31415,31380,31392,31403,31497,31462,31392,31368,31398,31421,31374,31462,31421,31357,31357,31421,31386,31421,31485,31403,31421,31438,31363,31444,31398,31456,31427,31351,31462,31421,,,,,,,,,,,,,
Gesture 3,13:35:39.995,31386,31456,31438,31392,31386,31421,31334,31392,31427,31433,31398,31398,31427,31334,31357,31351,31328,31403,31456,31427,31386,31368,31322,31444,31334,31392,31363,31305,31316,31432,31415,,,,,,,,,,,,,
Gesture 4,13:35:40.094,31380,31339,31398,31363,31427,31409,31398,31421,31427,31374,31398,31438,31415,31462,31421,31409,31427,31456,31432,31433,31322,31398,31345,31386,31386,31374,31467,31427,31432,31421,31351,,,,,,,,,,,,,
Gesture 4,13:35:40.195,31374,31363,31380,31351,31380,31450,31421,31415,31363,31322,31404,31340,31456,31462,31462,31351,31398,31473,31456,31386,31392,31444,31427,31409,31398,31409,31409,31351,31363,31392,31386,,,,,,,,,,,,,
Gesture 4,13:35:40.294,31368,31357,31409,31357,31450,31450,31386,31357,31380,31339,31357,31316,31438,31403,31409,31398,31421,31415,31438,31438,31386,31432,31427,31421,31409,31409,31409,31438,31369,31380,31252,,,,,,,,,,,,,
Gesture 4,13:35:40.395,31444,31357,31421,31386,31363,31351,31409,31462,31386,31345,31403,31305,31380,31444,31438,31409,31421,31398,31485,31380,31363,31403,31421,31403,31427,31392,31433,31392,31380,31438,31374,,,,,,,,,,,,,
Gesture 4,13:35:40.494,31357,31322,31363,31392,31398,31398,31415,31363,31398,31357,31369,31334,31427,31467,31456,31409,31415,31415,31485,31508,31299,31339,31357,31328,31415,31398,31409,31368,31427,31374,31380,,,,,,,,,,,,,
Gesture 4,13:35:40.594,31427,31339,31398,31357,31357,31427,31380,31363,31369,31403,31398,31345,31380,31421,31415,31380,31473,31392,31479,31403,31409,31404,31432,31363,31380,31392,31398,31432,31409,31339,31363,,,,,,,,,,,,,
Gesture 4,13:35:40.695,31450,31380,31345,31374,31421,31473,31398,31403,31392,31339,31438,31305,31497,31392,31473,31444,31398,31427,31450,31415,31299,31398,31386,31403,31386,31398,31392,31380,31305,31421,31322,,,,,,,,,,,,,
Gesture 4,13:35:40.795,31322,31392,31438,31380,31386,31432,31409,31433,31433,31369,31450,31403,31392,31438,31409,31444,31415,31403,31392,31456,31363,31456,31415,31415,31473,31374,31386,31403,31438,31444,31433,,,,,,,,,,,,,
Gesture 4,13:35:40.895,31386,31351,31415,31345,31403,31427,31450,31369,31456,31275,31403,31339,31462,31421,31398,31444,31421,31421,31485,31467,31392,31427,31322,31392,31427,31415,31368,31473,31270,31363,31380,,,,,,,,,,,,,
Gesture 4,13:35:40.995,31438,31322,31392,31386,31339,31351,31427,31444,31374,31380,31380,31363,31380,31421,31415,31415,31392,31392,31403,31380,31369,31433,31386,31438,31386,31427,31386,31415,31415,31421,31374,,,,,,,,,,,,,
Gesture 4,13:35:41.094,31415,31345,31369,31363,31363,31450,31438,31450,31392,31310,31432,31334,31351,31473,31386,31380,31374,31380,31392,31368,31368,31322,31345,31438,31386,31415,31473,31386,31322,31386,31345,,,,,,,,,,,,,
Gesture 4,13:35:41.194,31432,31357,31398,31334,31438,31403,31357,31427,31374,31374,31403,31305,31386,31433,31456,31415,31462,31444,31514,31380,31392,31409,31374,31380,31421,31398,31444,31380,31281,31450,31374,,,,,,,,,,,,,
Gesture 4,13:35:41.210,31351,31357,31368,31357,31392,31392,31392,31421,31392,31357,31345,31386,31444,31427,31398,31374,31392,31427,31485,31403,31270,31421,31310,31328,31415,31398,31409,31438,31386,31398,31305,,,,,,,,,,,,,
Gesture 4,13:35:41.394,31433,31357,31392,31322,31421,31421,31427,31485,31450,31328,31444,31357,31421,31415,31444,31403,31427,31409,31415,31432,31368,31473,31438,31456,31462,31403,31456,31421,31316,31409,31357,,,,,,,,,,,,,
Gesture 4,13:35:41.495,31392,31351,31398,31305,31427,31450,31409,31473,31339,31281,31380,31357,31363,31421,31467,31398,31322,31427,31456,31427,31328,31427,31334,31438,31363,31444,31392,31462,31258,31409,31310,,,,,,,,,,,,,
Gesture 4,13:35:41.515,31398,31142,31409,31438,31456,31485,31398,31415,31433,31345,31450,31380,31421,31450,31473,31432,31450,31456,31409,31380,31363,31409,31328,31433,31427,31421,31421,31392,31334,31421,31374,,,,,,,,,,,,,
Gesture 4,13:35:41.695,31374,31200,31409,31275,31398,31427,31409,31345,31380,31212,31392,31299,31386,31467,31421,31403,31398,31392,31450,31392,31345,31386,31096,31322,31398,31369,31409,31432,31305,31368,31322,,,,,,,,,,,,,
Gesture 4,13:35:41.795,31363,31125,31380,31334,31380,31415,31351,31328,31386,31380,31386,31357,31444,31421,31322,31386,31473,31409,31467,31403,31374,31433,31345,31409,31409,31392,31421,31398,31369,31398,31224,,,,,,,,,,,,,
Gesture 4,13:35:41.895,31345,31136,31398,31299,31415,31450,31369,31421,31374,31345,31374,31334,31398,31473,31427,31409,31456,31386,31473,31450,31351,31357,31479,31328,31444,31409,31415,31409,31206,31322,31217,,,,,,,,,,,,,
Gesture 4,13:35:41.995,31409,31166,31409,31380,31409,31467,31444,31421,31363,31299,31398,31339,31392,31450,31415,31444,31444,31339,31462,31392,31345,31485,31328,31473,31403,31450,31433,31450,31357,31433,31241,,,,,,,,,,,,,
Gesture 4,13:35:42.095,31310,31392,31363,31351,31462,31433,31421,31462,31345,31252,31479,31281,31467,31409,31444,31427,31380,31432,31392,31427,31374,31357,31322,31421,31392,31444,31497,31403,31368,31252,31281,,,,,,,,,,,,,
Gesture 4,13:35:42.195,31427,31299,31374,31299,31369,31467,31444,31409,31409,31374,31479,31421,31363,31427,31479,31403,31363,31398,31462,31363,31339,31398,31409,31368,31415,31421,31444,31386,31392,31421,31281,,,,,,,,,,,,,
Gesture 4,13:35:42.295,31310,31409,31363,31374,31409,31374,31380,31432,31403,31212,31450,31322,31409,31433,31427,31392,31433,31427,31427,31485,31334,31374,31200,31398,31427,31421,31456,31398,31322,31374,31357,,,,,,,,,,,,,
Gesture 4,13:35:42.395,31398,31398,31345,31374,31398,31398,31444,31421,31438,31293,31386,31450,31456,31421,31409,31467,31398,31432,31502,31368,31363,31403,31328,31421,31427,31386,31485,31398,31380,31409,31258,,,,,,,,,,,,,
Gesture 4,13:35:42.409,31380,31415,31374,31305,31357,31409,31368,31368,31409,31183,31328,31316,31386,31438,31427,31409,31386,31374,31403,31363,31415,31403,31374,31427,31438,31374,31392,31316,31275,31328,31281,,,,,,,,,,,,,
Gesture 4,13:35:42.595,31467,31368,31403,31357,31427,31421,31334,31456,31380,31143,31403,31310,31368,31427,31415,31403,31462,31398,31450,31427,31374,31357,31293,31427,31403,31427,31462,31421,31322,31380,31322,,,,,,,,,,,,,
Gesture 4,13:35:42.695,31374,31345,31421,31473,31433,31433,31427,31398,31421,31328,31479,31363,31403,31433,31462,31374,31421,31427,31421,31398,31351,31374,31398,31398,31462,31409,31433,31351,31363,31380,31409,,,,,,,,,,,,,
Gesture 4,13:35:42.795,31403,31421,31398,31340,31398,31491,31374,31415,31409,31235,31427,31293,31403,31427,31386,31369,31444,31351,31467,31433,31363,31357,31281,31351,31363,31479,31485,31427,31380,31398,31299,,,,,,,,,,,,,
Gesture 4,13:35:42.894,31438,31305,31392,31368,31427,31409,31409,31374,31409,31223,31334,31415,31409,31433,31432,31409,31374,31363,31537,31421,31322,31369,31224,31409,31351,31433,31432,31409,31316,31380,31334,,,,,,,,,,,,,
Gesture 4,13:35:42.995,31409,31380,31427,31409,31438,31380,31479,31403,31415,31160,31433,31345,31444,31398,31415,31398,31392,31450,31415,31409,31334,31392,31241,31368,31363,31380,31345,31403,31386,31380,31316,,,,,,,,,,,,,
Gesture 4,13:35:43.095,31322,31212,31316,31299,31374,31374,31421,31334,31374,31299,31380,31310,31322,31299,31497,31432,31374,31444,31287,31374,31398,31386,31479,31403,31363,31415,31438,31398,31229,31386,31334,,,,,,,,,,,,,
Gesture 4,13:35:43.194,31369,31433,31316,31398,31253,31462,31444,31293,31421,31438,31281,31374,31409,31462,31392,31339,31334,31392,31432,31421,31339,31258,31398,31380,31287,31497,31444,31241,31462,31363,31514,,,,,,,,,,,,,
Gesture 4,13:35:43.208,31363,31386,31403,31421,31421,31450,31444,31392,31438,31189,31415,31351,31450,31467,31427,31380,31427,31508,31456,31415,31293,31363,31241,31421,31427,31409,31473,31386,31421,31398,31305,,,,,,,,,,,,,
Gesture 4,13:35:43.394,31462,31433,31415,31369,31473,31427,31398,31462,31392,31223,31409,31398,31403,31403,31433,31392,31427,31392,31392,31392,31357,31427,31136,31403,31427,31433,31398,31438,31374,31421,31473,,,,,,,,,,,,,
Gesture 4,13:35:43.495,31398,31322,31380,31310,31392,31415,31386,31392,31363,31339,31409,31345,31380,31386,31369,31363,31403,31438,31427,31421,31369,31363,31247,31409,31450,31427,31450,31398,31322,31386,31415,,,,,,,,,,,,,
Gesture 4,13:35:43.595,31328,31108,31403,31299,31351,31398,31409,31392,31369,31403,31392,31310,31380,31305,31403,31444,31421,31427,31328,31334,31345,31380,31432,31374,31427,31374,31316,31432,31299,31444,31218,,,,,,,,,,,,,
Gesture 4,13:35:43.694,31403,31299,31392,31345,31374,31497,31456,31427,31374,31363,31444,31339,31368,31403,31392,31450,31462,31415,31456,31392,31351,31374,31328,31368,31438,31432,31368,31398,31368,31392,31241,,,,,,,,,,,,,
Gesture 4,13:35:43.795,31462,31177,31403,31310,31386,31409,31369,31398,31392,31357,31403,31351,31322,31374,31421,31421,31433,31386,31409,31421,31450,31380,31374,31479,31444,31403,31403,31345,31345,31374,31194,,,,,,,,,,,,,
Gesture 4,13:35:43.895,31363,31351,31368,31369,31392,31392,31456,31444,31374,31351,31392,31368,31409,31351,31444,31392,31467,31473,31450,31421,31386,31409,31357,31368,31415,31438,31357,31415,31392,31398,31183,,,,,,,,,,,,,
Gesture 4,13:35:43.995,31421,31229,31334,31380,31363,31368,31427,31456,31339,31363,31380,31357,31409,31339,31473,31444,31444,31438,31339,31398,31351,31392,31438,31403,31409,31363,31374,31398,31363,31403,31322,,,,,,,,,,,,,
Gesture 4,13:35:44.094,31409,31328,31334,31374,31409,31380,31467,31467,31415,31241,31392,31322,31357,31409,31409,31444,31456,31444,31386,31427,31305,31433,31212,31398,31508,31386,31363,31374,31328,31392,31374,,,,,,,,,,,,,
Gesture 4,13:35:44.195,31357,31287,31409,31339,31415,31392,31415,31421,31427,31235,31403,31322,31380,31345,31409,31433,31386,31456,31339,31403,31427,31374,31212,31479,31444,31374,31287,31427,31310,31415,31293,,,,,,,,,,,,,
Gesture 4,13:35:44.295,31351,31351,31363,31351,31392,31380,31444,31456,31351,31276,31386,31380,31374,31444,31368,31427,31374,31403,31351,31392,31357,31427,31229,31398,31421,31386,31374,31409,31322,31415,31467,,,,,,,,,,,,,
Gesture 4,13:35:44.395,31415,31380,31398,31340,31421,31403,31398,31398,31386,31154,31357,31310,31398,31462,31438,31485,31444,31386,31392,31368,31409,31380,31334,31345,31433,31427,31508,31456,31345,31374,31328,,,,,,,,,,,,,
Gesture 4,13:35:44.495,31444,31310,31398,31403,31403,31456,31462,31432,31386,31380,31374,31345,31403,31444,31386,31473,31491,31427,31403,31368,31316,31363,31409,31409,31438,31450,31485,31403,31392,31386,31137,,,,,,,,,,,,,
Gesture 4,13:35:44.594,31409,31200,31427,31316,31380,31380,31409,31485,31415,31305,31334,31363,31444,31433,31386,31456,31450,31386,31374,31368,31456,31386,31374,31427,31450,31421,31368,31398,31369,31392,31310,,,,,,,,,,,,,
Gesture 4,13:35:44.695,31403,31172,31398,31368,31450,31444,31374,31438,31351,31328,31392,31345,31438,31433,31462,31491,31473,31374,31403,31415,31380,31398,31345,31421,31456,31444,31409,31415,31328,31386,31148,,,,,,,,,,,,,
Gesture 4,13:35:44.795,31427,31276,31409,31438,31386,31374,31386,31444,31421,31235,31433,31380,31392,31444,31485,31520,31456,31462,31427,31351,31409,31450,31212,31374,31479,31450,31374,31403,31363,31432,31398,,,,,,,,,,,,,
Gesture 4,13:35:44.895,31403,31322,31415,31299,31444,31491,31438,31456,31398,31409,31398,31374,31345,31409,31438,31479,31427,31363,31392,31438,31369,31409,31351,31427,31514,31444,31433,31432,31398,31392,31148,,,,,,,,,,,,,
Gesture 4,13:35:44.910,31398,31363,31386,31450,31444,31392,31403,31497,31398,31276,31444,31456,31433,31444,31485,31433,31520,31444,31450,31386,31433,31409,31316,31438,31479,31462,31456,31473,31357,31409,31380,,,,,,,,,,,,,
Gesture 4,13:35:45.095,31409,31223,31380,31392,31433,31427,31485,31427,31427,31403,31386,31299,31497,31427,31456,31450,31438,31421,31497,31473,31322,31345,31409,31438,31456,31456,31438,31369,31328,31351,31166,,,,,,,,,,,,,
Gesture 4,13:35:45.195,31403,31200,31363,31462,31409,31438,31438,31467,31444,31456,31462,31444,31462,31415,31415,31468,31497,31427,31403,31473,31438,31432,31363,31374,31561,31421,31438,31368,31450,31415,31258,,,,,,,,,,,,,
Gesture 4,13:35:45.209,31345,31357,31380,31368,31479,31508,31479,31462,31392,31438,31415,31450,31450,31456,31479,31508,31555,31514,31514,31467,31444,31398,31357,31374,31444,31502,31497,31421,31444,31374,31218,,,,,,,,,,,,,
Gesture 4,13:35:45.311,31415,31328,31438,31432,31380,31473,31473,31485,31450,31339,31380,31432,31386,31427,31456,31537,31497,31433,31444,31409,31473,31392,31444,31462,31491,31432,31450,31444,31438,31421,31427,,,,,,,,,,,,,
Gesture 4,13:35:45.413,31444,31276,31427,31415,31427,31473,31409,31467,31403,31270,31532,31398,31398,31473,31433,31415,31502,31392,31368,31438,31363,31363,31415,31409,31398,31444,31450,31421,31462,31328,31252,,,,,,,,,,,,,
Gesture 4,13:35:45.595,31398,31328,31386,31392,31438,31497,31432,31415,31310,31444,31392,31310,31409,31438,31456,31403,31438,31403,31415,31438,31334,31415,31403,31351,31473,31421,31456,31398,31339,31432,31189,,,,,,,,,,,,,
Gesture 4,13:35:45.695,31398,31200,31322,31403,31322,31450,31450,31433,31363,31293,31450,31398,31403,31421,31432,31368,31427,31415,31392,31467,31380,31374,31281,31368,31403,31392,31421,31473,31357,31409,31223,,,,,,,,,,,,,
Gesture 4,13:35:45.794,31392,31415,31438,31351,31386,31450,31450,31479,31403,31229,31427,31351,31363,31456,31450,31514,31543,31427,31427,31351,31392,31398,31281,31427,31491,31415,31444,31398,31380,31444,31403,,,,,,,,,,,,,
Gesture 4,13:35:45.809,31380,31224,31305,31368,31392,31450,31363,31421,31386,31438,31380,31456,31357,31491,31392,31421,31444,31491,31450,31398,31345,31374,31374,31380,31398,31456,31403,31403,31380,31368,31345,,,,,,,,,,,,,
Gesture 4,13:35:45.995,31380,31369,31380,31456,31386,31467,31421,31444,31415,31374,31444,31438,31322,31432,31508,31456,31479,31433,31368,31398,31368,31432,31374,31462,31456,31392,31456,31357,31462,31369,31241,,,,,,,,,,,,,
Gesture 4,13:35:46.094,31398,31212,31334,31363,31409,31450,31444,31438,31386,31357,31386,31299,31409,31386,31456,31421,31421,31421,31462,31409,31386,31339,31380,31392,31438,31438,31479,31450,31351,31345,31212,,,,,,,,,,,,,
Gesture 4,13:35:46.195,31438,31194,31421,31438,31421,31456,31444,31468,31421,31357,31403,31368,31369,31433,31520,31485,31473,31450,31479,31386,31438,31444,31305,31468,31502,31462,31386,31380,31433,31479,31305,,,,,,,,,,,,,
Gesture 4,13:35:46.295,31386,31246,31380,31380,31380,31473,31380,31374,31409,31235,31368,31380,31380,31444,31444,31386,31386,31514,31409,31398,31363,31386,31287,31322,31357,31368,31432,31374,31363,31351,31316,,,,,,,,,,,,,
Gesture 4,13:35:46.308,31427,31398,31380,31334,31415,31438,31398,31543,31421,31183,31316,31444,31339,31444,31433,31444,31456,31450,31491,31380,31456,31334,31328,31415,31502,31497,31473,31438,31392,31334,31310,,,,,,,,,,,,,
Gesture 4,13:35:46.494,31363,31270,31339,31310,31374,31427,31380,31438,31392,31154,31316,31345,31386,31433,31415,31357,31485,31450,31444,31328,31363,31305,31160,31339,31432,31450,31392,31368,31310,31305,31363,,,,,,,,,,,,,
Gesture 4,13:35:46.595,31409,31223,31427,31427,31398,31485,31491,31485,31374,31345,31438,31368,31462,31479,31427,31479,31456,31450,31432,31444,31386,31433,31386,31444,31450,31444,31467,31380,31363,31334,31450,,,,,,,,,,,,,
Gesture 4,13:35:46.695,31432,31200,31415,31380,31392,31473,31415,31467,31432,31392,31409,31368,31363,31357,31392,31473,31432,31398,31368,31403,31369,31392,31345,31392,31409,31433,31380,31386,31427,31374,31218,,,,,,,,,,,,,
Gesture 4,13:35:46.795,31363,31177,31345,31374,31438,31462,31433,31415,31398,31427,31427,31380,31433,31398,31456,31491,31462,31508,31450,31374,31398,31386,31398,31421,31473,31497,31392,31357,31351,31392,31171,,,,,,,,,,,,,
Gesture 4,13:35:46.895,31351,31409,31310,31345,31316,31409,31444,31368,31427,31206,31363,31328,31316,31386,31415,31456,31415,31502,31438,31368,31386,31374,31171,31438,31421,31415,31497,31438,31334,31351,31462,,,,,,,,,,,,,
Gesture 4,13:35:46.994,31339,31421,31357,31351,31444,31497,31415,31369,31380,31223,31328,31392,31421,31514,31456,31491,31514,31502,31392,31415,31363,31438,31334,31462,31444,31444,31514,31415,31403,31386,31334,,,,,,,,,,,,,
Gesture 4,13:35:47.012,31345,31241,31369,31328,31421,31392,31485,31432,31339,31287,31403,31322,31398,31409,31462,31432,31427,31491,31421,31380,31363,31403,31403,31421,31368,31415,31444,31380,31241,31316,31287,,,,,,,,,,,,,
Gesture 4,13:35:47.113,31386,31322,31345,31392,31351,31456,31526,31462,31363,31386,31345,31398,31368,31432,31491,31415,31508,31497,31462,31386,31421,31386,31258,31363,31450,31444,31386,31351,31363,31351,31328,,,,,,,,,,,,,
Gesture 4,13:35:47.210,31386,31380,31415,31339,31421,31409,31444,31427,31398,31357,31398,31363,31403,31380,31473,31450,31368,31450,31444,31456,31398,31334,31305,31386,31403,31473,31432,31421,31316,31398,31322,,,,,,,,,,,,,
Gesture 4,13:35:47.394,31421,31345,31357,31398,31392,31380,31444,31444,31392,31403,31339,31386,31485,31415,31502,31427,31456,31479,31456,31398,31380,31386,31392,31386,31427,31456,31427,31357,31345,31357,31374,,,,,,,,,,,,,
Gesture 4,13:35:47.495,31374,31345,31351,31351,31392,31456,31467,31409,31363,31293,31339,31363,31438,31415,31467,31462,31403,31386,31497,31363,31357,31357,31380,31392,31450,31444,31438,31438,31380,31374,31345,,,,,,,,,,,,,
Gesture 4,13:35:47.595,31357,31403,31392,31310,31421,31427,31398,31456,31398,31316,31456,31374,31438,31450,31473,31479,31468,31433,31386,31438,31368,31357,31316,31369,31433,31467,31421,31432,31357,31351,31339,,,,,,,,,,,,,
Gesture 4,13:35:47.694,31339,31351,31299,31363,31462,31502,31520,31485,31409,31386,31392,31351,31456,31479,31497,31479,31433,31479,31392,31438,31351,31351,31392,31427,31456,31532,31409,31427,31380,31357,31322,,,,,,,,,,,,,
Gesture 4,13:35:47.795,31316,31334,31281,31345,31386,31398,31473,31468,31462,31316,31380,31386,31432,31403,31467,31444,31462,31444,31369,31415,31421,31380,31339,31316,31444,31479,31415,31438,31310,31322,31345,,,,,,,,,,,,,
Gesture 4,13:35:47.895,31386,31334,31479,31281,31427,31456,31450,31450,31403,31316,31357,31322,31415,31444,31467,31491,31432,31450,31462,31444,31392,31380,31345,31491,31398,31438,31403,31462,31322,31374,31339,,,,,,,,,,,,,
Gesture 4,13:35:47.995,31351,31351,31363,31316,31421,31456,31427,31462,31462,31310,31403,31281,31398,31415,31491,31433,31450,31479,31427,31485,31368,31305,31357,31450,31462,31473,31438,31473,31264,31368,31363,,,,,,,,,,,,,
Gesture 4,13:35:48.095,31398,31392,31322,31374,31438,31444,31444,31456,31351,31380,31415,31357,31433,31421,31473,31438,31462,31421,31415,31479,31374,31403,31433,31409,31467,31432,31427,31444,31299,31339,31357,,,,,,,,,,,,,
Gesture 4,13:35:48.195,31386,31380,31281,31386,31438,31380,31485,31444,31421,31450,31398,31380,31403,31450,31444,31433,31479,31444,31456,31415,31351,31398,31415,31345,31433,31479,31479,31467,31339,31415,31351,,,,,,,,,,,,,
Gesture 4,13:35:48.295,31368,31415,31357,31392,31415,31467,31444,31363,31386,31392,31368,31380,31497,31380,31485,31444,31386,31514,31409,31467,31398,31357,31386,31351,31403,31456,31427,31456,31392,31380,31374,,,,,,,,,,,,,
Gesture 4,13:35:48.310,31369,31351,31345,31345,31433,31409,31473,31433,31328,31339,31339,31316,31427,31374,31438,31479,31438,31462,31398,31369,31322,31305,31351,31369,31398,31473,31398,31398,31310,31334,31316,,,,,,,,,,,,,
Gesture 4,13:35:48.494,31398,31386,31322,31374,31432,31444,31421,31415,31351,31363,31345,31351,31432,31467,31421,31438,31398,31479,31450,31444,31415,31380,31357,31374,31473,31473,31421,31380,31386,31398,31456,,,,,,,,,,,,,
Gesture 4,13:35:48.595,31380,31380,31293,31275,31502,31467,31456,31450,31368,31369,31310,31427,31374,31427,31444,31433,31450,31491,31485,31421,31374,31386,31339,31339,31398,31444,31462,31392,31403,31374,31398,,,,,,,,,,,,,
Gesture 4,13:35:48.695,31363,31392,31357,31380,31415,31444,31433,31456,31421,31363,31380,31380,31398,31462,31473,31473,31392,31543,31380,31432,31392,31357,31276,31398,31421,31456,31456,31497,31299,31351,31415,,,,,,,,,,,,,
Gesture 4,13:35:48.794,31380,31322,31252,31456,31415,31415,31479,31427,31363,31310,31316,31409,31392,31392,31386,31438,31473,31427,31398,31398,31374,31264,31403,31368,31427,31467,31403,31450,31351,31339,31345,,,,,,,,,,,,,
Gesture 4,13:35:48.895,31386,31322,31421,31287,31427,31403,31467,31392,31363,31363,31339,31322,31386,31485,31462,31374,31485,31403,31398,31473,31415,31403,31374,31386,31380,31497,31467,31479,31374,31380,31345,,,,,,,,,,,,,
Gesture 4,13:35:48.995,31398,31351,31322,31421,31369,31427,31403,31456,31351,31264,31357,31363,31398,31415,31479,31467,31403,31549,31438,31386,31363,31357,31310,31392,31450,31467,31392,31409,31403,31328,31386,,,,,,,,,,,,,
Gesture 4,13:35:49.095,31328,31374,31293,31421,31345,31427,31450,31433,31357,31392,31345,31427,31409,31380,31421,31409,31450,31491,31497,31444,31398,31345,31252,31351,31427,31427,31450,31438,31398,31374,31415,,,,,,,,,,,,,
Gesture 4,13:35:49.195,31305,31281,31299,31293,31409,31438,31456,31456,31369,31305,31316,31293,31403,31345,31450,31398,31438,31438,31392,31380,31328,31334,31328,31299,31409,31415,31409,31334,31322,31351,31287,,,,,,,,,,,,,
Gesture 4,13:35:49.296,31380,31339,31328,31386,31421,31444,31444,31421,31386,31357,31398,31380,31456,31456,31409,31473,31427,31485,31514,31444,31392,31363,31398,31334,31427,31508,31427,31409,31403,31345,31357,,,,,,,,,,,,,
Gesture 4,13:35:49.311,31310,31369,31392,31363,31433,31438,31450,31433,31403,31357,31380,31334,31485,31421,31357,31427,31444,31415,31415,31421,31380,31363,31380,31473,31432,31403,31450,31415,31374,31415,31345,,,,,,,,,,,,,
Gesture 4,13:35:49.495,31386,31334,31334,31351,31409,31502,31427,31444,31415,31316,31369,31351,31403,31479,31491,31508,31479,31479,31502,31456,31380,31363,31345,31322,31433,31508,31450,31479,31357,31310,31316,,,,,,,,,,,,,
Gesture 4,13:35:49.595,31392,31258,31363,31316,31363,31444,31450,31403,31409,31310,31293,31322,31392,31444,31427,31432,31444,31392,31432,31386,31357,31328,31380,31432,31380,31433,31432,31380,31287,31316,31345,,,,,,,,,,,,,
Gesture 4,13:35:49.608,31392,31293,31380,31351,31415,31462,31497,31392,31473,31310,31398,31310,31427,31479,31467,31427,31427,31438,31479,31444,31357,31368,31380,31473,31415,31485,31444,31427,31316,31305,31310,,,,,,,,,,,,,
Gesture 4,13:35:49.795,31398,31363,31368,31421,31438,31415,31532,31508,31403,31316,31409,31374,31421,31398,31508,31427,31433,31497,31497,31409,31334,31339,31403,31450,31497,31467,31450,31363,31386,31380,31339,,,,,,,,,,,,,
Gesture 4,13:35:49.895,31351,31357,31310,31334,31421,31351,31485,31409,31380,31351,31363,31334,31456,31508,31409,31409,31462,31427,31415,31432,31386,31368,31305,31363,31398,31473,31403,31415,31368,31386,31427,,,,,,,,,,,,,
Gesture 4,13:35:49.995,31432,31374,31415,31427,31427,31409,31462,31374,31235,31351,31368,31380,31462,31444,31479,31444,31479,31409,31427,31450,31351,31403,31421,31462,31415,31444,31409,31386,31345,31421,31334,,,,,,,,,,,,,
